Time (s);Gyroscope X (deg/s);Gyroscope Y (deg/s);Gyroscope Z (deg/s);Accelerometer X (g);Accelerometer Y (g);Accelerometer Z (g);Magnetometer X (uT);Magnetometer Y (uT);Magnetometer Z (uT);Barometer (hPa)
0;-0,2139133;0,08690406;0,01756563;-0,9172817;0,3224981;-0,1790403;45,29882;9,373024;8,899981;1006,253
0,020256042;0,3428943;-0,03195372;-0,04385895;-0,9143677;0,332663;-0,1784973;45,28884;9,064615;8,522602;1006,253
0,037979126;0,5277975;-0,1504857;0,3226389;-0,9138718;0,3355681;-0,1775124;45,28884;9,064615;8,522602;1006,251
0,058235168;0,4029799;0,08733896;0,1997207;-0,9162769;0,3365375;-0,1755503;45,28884;9,064615;8,522602;1006,251
0,078491211;0,09285773;-0,03116587;0,07701506;-0,9171707;0,3263809;-0,169849;45,66612;9,062008;8,894359;1006,251
0,0987463;-0,09272119;0,02818554;0,6264815;-0,9172145;0,3196008;-0,1737655;45,66612;9,062008;8,894359;1006,251
0,119002342;-0,03055758;0,08725757;0,8078023;-0,9196535;0,3375065;-0,1735779;44,93121;9,070452;8,910062;1006,251
0,139254093;0,03143062;0,3245414;0,8667516;-0,9142731;0,3341243;-0,1707736;44,93121;9,070452;8,910062;1006,251
0,159509659;0,3405398;-0,03180105;0,7422563;-0,9148531;0,3423426;-0,1779228;44,93121;9,070452;8,910062;1006,249
0,179765701;0,1539895;-0,03175844;0,556981;-0,9114709;0,3418582;-0,1794089;45,66593;8,693855;8,897033;1006,249
0,200021267;0,276979;-0,1502437;0,6166368;-0,9104362;0,3355729;-0,1746569;45,66593;8,693855;8,897033;1006,249
0,217745304;-0,1566016;0,02809239;0,6152052;-0,9134086;0,3433099;-0,1788933;45,58374;9,366008;8,070953;1006,249
0,238043308;-0,1564997;-0,09050599;0,308083;-0,9133769;0,3500889;-0,1759406;45,58374;9,366008;8,070953;1006,249
0,258299351;-0,1562039;-0,09039067;0,001789615;-0,9152881;0,3471874;-0,1735367;45,58374;9,366008;8,070953;1006,249
0,278555393;0,02963118;-0,0310208;-0,1203039;-0,9123334;0,3394485;-0,1707461;45,60488;9,062712;8,895667;1006,248
0,298810482;-0,09401352;0,02814385;-0,05873666;-0,9167528;0,3399262;-0,1745507;45,60488;9,062712;8,895667;1006,248
0,319066525;-0,09364149;0,1465451;0,06367256;-0,9152803;0,3341204;-0,1736548;45,60488;9,062712;8,895667;1006,248
0,339318276;-0,1550847;0,1461586;-0,05853799;-0,9123624;0,3379937;-0,1731688;45,60488;9,062712;8,895667;1006,248
0,359573841;-0,0928227;0,08651847;-0,05833336;-0,9152697;0,3365414;-0,1726691;45,60488;9,062712;8,895667;1006,248
0,379829407;-0,09243424;0,02702806;-0,1192026;-0,9109601;0,3399249;-0,1775039;45,28899;9,371409;8,520373;1006,248
0,400085449;-0,03042675;-0,09160488;-0,3631581;-0,911447;0,3418605;-0,1774812;45,28899;9,371409;8,520373;1006,246
0,417809486;-0,09217417;0,02710556;-0,4234527;-0,9157879;0,3408939;-0,1750342;45,5952;9,367891;8,51383;1006,246
0,438064575;-0,1538736;0,02711204;-0,8501906;-0,9157297;0,3433196;-0,1701932;45,5952;9,367891;8,51383;1006,248
0,458320618;0,09380868;0,02715576;-0,6648363;-0,9133358;0,3312173;-0,1737016;45,5952;9,367891;8,51383;1006,248
0,47857666;0,03193366;0,02706905;-0,4187013;-0,9162232;0,326379;-0,1717869;45,61634;9,064595;9,338544;1006,248
0,498831749;-0,02976658;0,02698239;-0,2953116;-0,9153175;0,3365367;-0,1765244;45,61634;9,064595;9,338544;1006,248
0,519087792;0,09416997;0,145517;-0,3557202;-0,9138857;0,3389547;-0,1784456;45,29882;9,373024;8,899981;1006,248
0,539339543;0,03227469;0,02667972;-0,4770506;-0,9142919;0,3355744;-0,1722062;45,29882;9,373024;8,899981;1006,248
0,559595585;0,2794703;-0,03253005;-0,2314062;-0,9153339;0,3341151;-0,177992;45,29882;9,373024;8,899981;1006,248
0,579851151;0,03166702;0,02688068;-0,2917067;-0,9176975;0,3254087;-0,173226;45,28884;9,064615;8,522602;1006,248
0,600106716;-0,1538554;-0,03244149;0,01429615;-0,9152815;0,3360562;-0,1736373;45,28884;9,064615;8,522602;1006,253
0,617830753;0,03208098;-0,09190428;0,01426473;-0,9118736;0,3428341;-0,1726483;44,92154;9,375631;8,528225;1006,253
0,638085842;0,2173657;-0,09180388;-0,2301602;-0,9133393;0,3471887;-0,1730754;44,92154;9,375631;8,528225;1006,248
0,658341885;0,154792;-0,09159207;-0,4128407;-0,9192011;0,3433113;-0,1759402;44,92154;9,375631;8,528225;1006,248
0,678597927;0,03083315;0,1458426;-0,289389;-0,9113612;0,3278333;-0,1713433;45,31028;9,374907;9,342858;1006,248
0,698853016;-0,1546483;0,3235756;-0,1664006;-0,9187068;0,3287926;-0,1760765;45,31028;9,374907;9,342858;1006,248
0,719109059;-0,2778692;0,2636764;0,01721786;-0,9153062;0,3375058;-0,1755518;45,97248;9,365284;8,885587;1006,246
0,739361286;-0,1536984;0,02588418;-0,1051255;-0,9158507;0,3462116;-0,1798052;45,97248;9,365284;8,885587;1006,246
0,759616852;0,09410005;-0,03350995;-0,2271424;-0,9115024;0,344759;-0,1817922;45,97248;9,365284;8,885587;1006,25
0,779872418;0,09390262;-0,1520841;-0,4710573;-0,911897;0,3418638;-0,1745846;45,28884;9,064615;8,522602;1006,25
0,80012846;0,2171595;-0,1515905;-0,6535744;-0,9176906;0,3438011;-0,171614;45,28884;9,064615;8,522602;1006,25
0,81785202;0,1548875;-0,2106984;-0,5911228;-0,9133251;0,3433181;-0,1721465;44,93137;9,377246;8,907833;1006,25
0,838107586;0,1547122;-0,03248021;-0,5895813;-0,917181;0,3336398;-0,1702653;44,93137;9,377246;8,907833;1006,252
0,858363152;-0,2163678;0,1453278;-0,2828113;-0,9157049;0,3317063;-0,1688524;44,93137;9,377246;8,907833;1006,252
0,878619194;-0,1540104;0,08548479;0,0233035;-0,9148051;0,3316996;-0,1746456;45,58359;9,059214;8,073182;1006,253
0,89887476;0,09378888;0,08519571;-0,03780917;-0,9129621;0,3389503;-0,1823112;45,58359;9,059214;8,073182;1006,253
0,919130325;0,2174346;-0,09304285;-0,2821994;-0,9105057;0,3423419;-0,1798967;45,29901;9,741177;8,897307;1006,255
0,939382553;-0,1546382;-0,1521197;-0,09827092;-0,9143614;0,3321796;-0,1780198;45,29901;9,741177;8,897307;1006,255
0,959638596;0,1545691;-0,09242732;-0,1590208;-0,9182135;0,3360534;-0,1750522;45,28884;9,064615;8,522602;1006,255
0,979893684;-0,09282358;-0,03308972;-0,03664779;-0,9142593;0,3409015;-0,1692667;45,28884;9,064615;8,522602;1006,255
1,000149727;-0,03085399;0,08561432;-0,03647899;-0,9142414;0,3409033;-0,1678209;45,28884;9,064615;8,522602;1006,257
1,017873764;0,1547926;-0,03312026;-0,0362068;-0,9128436;0,3505778;-0,172086;45,29901;9,741177;8,897307;1006,257
1,038128853;-0,03113605;-0,03314894;-0,3412906;-0,9161977;0,3336414;-0,1693117;45,29901;9,741177;8,897307;1006,257
1,058384895;0,1546764;-0,03321479;-0,279418;-0,9172043;0,3326696;-0,1722016;45,29901;9,741177;8,897307;1006,257
1,078640461;-0,09277494;-0,09251644;-0,2788701;-0,9163045;0,3326629;-0,1779949;45,28884;9,064615;8,522602;1006,257
1,13940382;0,154443;-0,09252749;-0,1550869;-0,9161977;0,3336414;-0,1693117;45,60522;9,737659;8,890764;1006,257
1,159659863;-0,03142647;0,1448722;-0,154544;-0,9143242;0,3297633;-0,1751502;44,92173;9,743784;8,525551;1006,258
1,179914951;-0,03121157;0,08538432;-0,215594;-0,9129015;0,3375043;-0,1775052;44,92173;9,743784;8,525551;1006,258
1,200170994;0,03060336;0,1447972;0,02906781;-0,918685;0,3423465;-0,1735445;44,92173;9,743784;8,525551;1006,263
1,217895031;-0,03143362;-0,1520173;-0,09304664;-0,9167365;0,3428318;-0,1730788;45,67811;10,10699;9,329658;1006,263
1,23815012;0,03057618;0,02627709;-0,09262108;-0,9117804;0,3263876;-0,1660502;45,67811;10,10699;9,329658;1006,263
1,258406162;-0,1547882;0,0855775;-0,03127689;-0,9172211;0,3307319;-0,1736649;45,28884;9,064615;8,522602;1006,258
1,278662205;-0,2162722;0,02582858;-0,03129429;-0,9158007;0,3423446;-0,1759849;45,28884;9,064615;8,522602;1006,258
1,29891777;0,09326461;-0,03356537;-0,1534967;-0,913907;0,3447605;-0,1798389;45,28884;9,064615;8,522602;1006,258
1,319173336;0,3405597;-0,2708721;-0,3364654;-0,9123468;0,3418672;-0,171688;45,60503;9,369506;8,893438;1006,258
1,339425087;0,1544948;0,02626723;-0,457729;-0,9142299;0,3317086;-0,1674221;45,60503;9,369506;8,893438;1006,257
1,35968113;0,03038115;0,2042818;-0,2734751;-0,9142291;0,3302567;-0,1674352;45,28884;9,064615;8,522602;1006,257
1,379936218;-0,03129574;0,144533;-0,1509682;-0,9152215;0,3355782;-0,1688226;45,28884;9,064615;8,522602;1006,258
1,400192261;0,03073303;0,2036297;-0,1510305;-0,9172677;0,3389552;-0,1769639;45,28884;9,064615;8,522602;1006,258
1,417916298;0,09246035;0,2034992;-0,08974063;-0,9143759;0,3365341;-0,1789443;45,29882;9,373024;8,899981;1006,257
1,438171387;0,0303751;-0,03399286;-0,2116812;-0,9153325;0,3316953;-0,1780139;45,29882;9,373024;8,899981;1006,257
1,458427429;0,09213255;-0,03392614;0,09421677;-0,9148491;0,3355672;-0,177984;45,28899;9,371409;8,520373;1006,261
1,478683472;0,03000926;0,02546952;0,1550727;-0,9167436;0,3346032;-0,1741169;45,28899;9,371409;8,520373;1006,261
1,498939514;-0,1554895;0,02551731;0,2768684;-0,9152295;0,3389653;-0,1692739;45,28899;9,371409;8,520373;1006,259
1,519194603;-0,3405615;0,2034033;0,09295335;-0,914283;0,3307354;-0,1717681;45,97267;9,733437;8,882913;1006,259
1,539446354;-0,5869249;0,202725;0,5812489;-0,9143384;0,3234701;-0,1766528;45,97267;9,733437;8,882913;1006,261
1,559702397;-0,5236953;0,2613029;0,8240252;-0,9153689;0,3326597;-0,1808966;45,60503;9,369506;8,893438;1006,261
1,579957962;-0,6461257;0,1421191;0,8218797;-0,9182284;0,3210482;-0,1771155;45,60503;9,369506;8,893438;1006,259
1,600213528;-0,7679768;0,3196751;1,614019;-0,9165514;0,3021947;-0,1604346;45,60503;9,369506;8,893438;1006,259
1,617937565;-1,5081;0,7934752;2,526783;-0,9213983;0,295418;-0,1599625;45,29882;9,373024;8,899981;1006,259
1,638193607;-0,8241235;0,613533;3,680871;-0,9172297;0,3152434;-0,1752506;45,29882;9,373024;8,899981;1006,259
1,658448696;-0,08059397;0,01907424;3,671093;-0,9019858;0,355391;-0,1972199;45,61649;9,371389;9,336315;1006,259
1,678704739;0,3521917;-0,1588864;3,478445;-0,8949475;0,355417;-0,1780154;45,61649;9,371389;9,336315;1006,259
1,698960781;0,4129276;-0,5143876;2,981049;-0,91641;0,3640642;-0,2239792;45,61649;9,371389;9,336315;1006,259
1,71921587;-0,7624835;-0,5726676;2,790039;-0,8990783;0,3365158;-0,1988671;45,31013;9,068113;9,345087;1006,259
1,739555836;-0,3895476;-1,28344;3,027289;-0,9039815;0,3742608;-0,2004021;45,31013;9,068113;9,345087;1006,259
1,759811878;2,2723;-2,289633;2,652961;-0,9118;0,3592971;-0,1657528;45,6045;8,326406;8,901016;1006,259
1,780067921;3,690734;-2,106662;2,279899;-0,9151385;0,3665617;-0,1603501;45,6045;8,326406;8,901016;1006,259
1,80032301;5,10312;-1,686106;1,296888;-0,9161517;0,3724128;-0,1241389;45,6045;8,326406;8,901016;1006,259
1,818047047;3,679604;0,03551903;0,929987;-0,9234285;0,368055;-0,1236193;45,96232;8,688723;8,510881;1006,262
1,838303089;2,751223;1,104114;0,7465367;-0,9136411;0,3545141;-0,1185435;45,96232;8,688723;8,510881;1006,262
1,858558655;1,203923;2,053977;0,5630865;-0,9035335;0,3931805;-0,1631244;45,66612;9,062008;8,894359;1006,258
1,87881422;0,8325708;1,99461;-1,210266;-0,8860487;0,4279867;-0,2005887;45,66612;9,062008;8,894359;1006,258
1,899070263;1,265815;1,163481;-4,451221;-0,8665478;0,4695768;-0,2317474;45,66612;9,062008;8,894359;1006,257
1,919325829;1,946627;-0,02384736;-7,692176;-0,8700182;0,4177816;-0,240372;45,67721;8,327586;9,342585;1006,257
1,939578056;1,699059;-1,033076;-9,71013;-0,89036;0,3916441;-0,2370189;45,67721;8,327586;9,342585;1006,255
1,959833145;0,5231107;-1,448641;-10,44393;-0,9062502;0,3563679;-0,1884905;45,30994;8,699961;9,347762;1006,255
1,980089188;-0,6528377;-1,092443;-10,62738;-0,911077;0,341413;-0,1476071;45,30994;8,699961;9,347762;1006,252
2,00034523;-0,9622978;-0,4394122;-10,81083;-0,9167395;0,3433631;-0,1340344;45,30994;8,699961;9,347762;1006,252
2,018068314;-0,4671616;-0,2019466;-11,23888;-0,9265434;0,3443185;-0,1411516;45,96251;9,056875;8,508207;1006,25
2,038324356;0,3374346;0,332351;-11,42233;-0,9339651;0,3230068;-0,1533147;45,96251;9,056875;8,508207;1006,25
2,058580399;0,5850027;0,5104502;-10,68853;-0,9355075;0,2857306;-0,1623105;45,28918;9,739562;8,517699;1006,25
2,078835964;-0,03391751;0,8072822;-9,648979;-0,9283569;0,2818481;-0,1735066;45,28918;9,739562;8,517699;1006,25
2,09909153;-0,4052696;0,8072822;-8,548278;-0,9285501;0,2755372;-0,1894665;45,28918;9,739562;8,517699;1006,251
2,119347572;-0,2195936;0,629183;-7,753326;-0,9208393;0,286666;-0,1937853;45,65682;10,10349;8,507173;1006,251
2,139599323;0,08986653;0,2729846;-7,141825;-0,9242478;0,2813399;-0,1947613;45,65682;10,10349;8,507173;1006,247
2,159854412;0,3993267;-0,02384736;-6,163424;-0,9315093;0,2711758;-0,1933303;45,29938;10,47748;8,891958;1006,247
2,180110455;0,7087868;-1,389274;-3,83972;-0,9254743;0,1744001;-0,1822191;45,29938;10,47748;8,891958;1006,246
2,197834492;1,018247;-0,4394122;-1,760617;-0,9442295;0,3129281;-0,08051978;45,29938;10,47748;8,891958;1006,246
2,218089581;-1,086082;-0,5581449;-0,9656659;-0,9726807;0,1708901;-0,2680236;44,92247;11,21639;8,514853;1006,244
2,238345623;-1,209866;0,3917174;0,7465367;-0,9534981;0,2692662;-0,1646786;44,92247;11,21639;8,514853;1006,244
2,258601666;-1,395542;0,332351;3,00909;-0,9635156;0,198086;-0,1931697;45,67848;10,8433;9,324308;1006,244
2,278857708;-2,385814;0,5698166;6,005445;-0,9478745;0,1676578;-0,1478231;45,67848;10,8433;9,324308;1006,244
2,299112797;-2,26203;0,5698166;8,634898;-0,9440619;0,2605783;-0,14847;45,3012;10,8459;8,952552;1006,242
2,319368839;-0,8385138;0,5698166;9,42985;-0,9295399;0,3022022;-0,1501757;45,3012;10,8459;8,952552;1006,242
2,33962059;1,575275;-0,3206794;9,980201;-0,9429939;0,2929679;-0,1780709;45,3012;10,8459;8,952552;1006,24
2,359876156;2,998791;-0,6175113;11,38665;-0,9365684;0,255714;-0,1712458;45,64573;10,83791;8,058947;1006,24
2,380131722;2,008519;-0,4394122;14,13841;-0,9368355;0,1991084;-0,1568133;45,64573;10,83791;8,058947;1006,239
2,397855759;0,5850027;0,2729846;17,37936;-0,9346459;0,1995697;-0,176111;45,28918;9,739562;8,517699;1006,239
2,418111801;-0,5290537;0,5698166;20,68147;-0,9285486;0,2329462;-0,1917791;45,28918;9,739562;8,517699;1006,241
2,43836689;-0,7766218;0,332351;22,63827;-0,9208903;0,2924689;-0,1975881;45,28918;9,739562;8,517699;1006,241
2,458622933;-0,2195936;-0,1425802;23,55552;-0,9054198;0,3326389;-0,2012448;45,96251;9,056875;8,508207;1006,24
2,478878975;0,3374346;-0,5581449;23,24977;-0,8994892;0,4013778;-0,1891195;45,96251;9,056875;8,508207;1006,24
2,499134064;4,731768;4,428632;23,80012;-1,066466;0,06687992;0,1942381;45,98361;8,692221;9,333366;1006,238
2,519390106;-28,00911;10,24654;22,27137;-1,093386;0,4480595;-0,7423556;45,98361;8,692221;9,333366;1006,238
2,539641857;-13,52638;1,99461;14,62761;-0,8498911;0,4508167;-0,1429289;45,98361;8,692221;9,333366;1006,234
2,5598979;-1,64311;0,03551903;7,901097;-0,7611293;0,773176;-0,1351732;45,28828;7,960158;8,530625;1006,234
2,580153465;0,3993267;-3,585831;-8,792878;-0,781233;1,009052;-0,3723685;45,28828;7,960158;8,530625;1006,233
2,597877026;4,979336;-4,298228;-19,98335;-0,8880308;0,6431122;0,004766312;45,66484;6,546299;8,912634;1006,233
2,618133068;2,441763;-1,508007;-22,30705;-0,9024732;0,3164256;-0,003333179;45,66484;6,546299;8,912634;1006,234
2,638389111;1,018247;2,053977;-18,33229;-0,9290062;0,1339687;0,001083319;45,66484;6,546299;8,912634;1006,234
2,6586442;-0,5909457;5,437861;-8,915178;-0,9958616;-0,01912354;-0,1109266;45,29773;7,225468;8,915583;1006,237
2,678900242;0,8325708;4,428632;2,64219;-0,9736603;-0,1005824;-0,2449208;45,29773;7,225468;8,915583;1006,237
2,699156284;6,279068;1,044748;14,07726;-1,017257;0,01881556;-0,3460403;45,65573;7,955936;8,522774;1006,235
2,719411373;10,36394;-2,517236;25,63462;-1,044033;-0,05360873;-0,1979646;45,65573;7,955936;8,522774;1006,235
2,739663601;7,083665;-2,517236;38,41499;-0,9609519;0,06650235;-0,1505262;45,65573;7,955936;8,522774;1006,229
2,759919167;-3,995007;2,053977;48,68821;-0,8361317;0,2374451;-0,1030705;45,28847;8,32831;8,527951;1006,229
2,780175209;-7,832312;3,003839;45,56955;-0,8561217;0,8354524;-0,2319269;45,28847;8,32831;8,527951;1006,232
2,79789877;-6,84204;1,044748;32,36113;-0,7539461;1,062889;-0,2839708;45,94995;6,907436;8,080932;1006,232
2,818154335;1,513383;-3,526465;12,91541;-0,6276625;0,9666221;-0,2905148;45,94995;6,907436;8,080932;1006,23
2,838410378;7,950153;-6,197953;-1,760617;-0,6923062;0,7165605;-0,1508722;45,94995;6,907436;8,080932;1006,23
2,858665943;7,826369;-4,77316;-7,753326;-0,8348516;0,4707595;-0,06482899;45,94886;4,75988;8,096533;1006,23
2,878921509;2,936899;-1,211175;-5,123872;-0,9736719;0,2427565;-0,06927466;45,94886;4,75988;8,096533;1006,23
2,899177551;-3,252303;1,935244;3,00909;-1,0099;0,1874923;-0,1344562;45,65392;4,397129;8,548627;1006,227
2,919433594;-6,84204;3,181938;9,2464;-0,9278454;0,3229425;-0,2083246;45,65392;4,397129;8,548627;1006,227
2,939684868;-6,22312;2,588274;10,16365;-0,8525886;0,5165644;-0,2001428;45,65392;4,397129;8,548627;1006,225
2,95994091;-3,066627;0,6885494;4,965893;-0,8043035;0,653524;-0,2158038;45,58159;5,132254;8,10171;1006,225
2,980196476;0,6468948;-1,567374;-2,372118;-0,7842975;0,6482166;-0,208834;45,58159;5,132254;8,10171;1006,223
3,018176079;2,194195;-2,517236;-11,91153;-0,8528725;0,4938841;-0,1458821;45,28666;4,769503;8,553804;1006,222
3,038431644;0,3993267;-0,7956105;-12,46188;-0,8770167;0,413594;-0,09960076;45,28666;4,769503;8,553804;1006,222
3,058687687;-1,581218;1,34158;-11,48348;-0,8993356;0,4053601;-0,09799298;45,28666;4,769503;8,553804;1006,226
3,078942776;-1,890678;2,291442;-11,17773;-0,9014453;0,4294949;-0,1493233;45,28666;4,769503;8,553804;1006,226
3,099198818;-0,8385138;2,113343;-11,66693;-0,874823;0,4362241;-0,1958134;45,64265;4,763398;8,103076;1006,224
3,119454861;0,2755426;0,9853814;-12,52303;-0,8638731;0,4265268;-0,2143317;45,64265;4,763398;8,103076;1006,224
3,139706612;0,1517586;0,2729846;-12,95108;-0,8696353;0,4057195;-0,2101209;45,64265;4,763398;8,103076;1006,224
3,159962177;-1,147974;0,2729846;-13,13453;-0,8656844;0,3960475;-0,2054304;45,287;5,444449;8,548902;1006,224
3,18021822;-1,828786;0,5698166;-13,07338;-0,890065;0,3926887;-0,1738747;45,287;5,444449;8,548902;1006,224
3,19794178;-0,9622978;0,03551903;-13,62374;-0,9036524;0,4226923;-0,17105;45,64336;6,174649;8,092824;1006,224
3,218197346;-0,09580953;0,1542518;-13,86834;-0,9066811;0,3801363;-0,1434481;45,64336;6,174649;8,092824;1006,224
3,238453388;0,3374346;0,8666486;-13,07338;-0,9054487;0,3525749;-0,1239494;45,64336;6,174649;8,092824;1006,224
3,258708954;-0,2814856;1,697778;-11,97268;-0,9094707;0,3312644;-0,1361485;45,30867;6,184252;9,366037;1006,222
3,278964996;-0,6528377;1,875877;-10,74968;-0,8998112;0,3467028;-0,1790066;45,30867;6,184252;9,366037;1006,222
3,299220085;-0,9004058;1,638412;-10,13818;-0,8928897;0,3568335;-0,2079065;45,28791;7,223853;8,535975;1006,221
3,319476128;-0,2814856;0,5698166;-10,01588;-0,898058;0,3689008;-0,2323232;45,28791;7,223853;8,535975;1006,221
3,339728355;0,5231107;-0,4987786;-10,38278;-0,8944783;0,3674678;-0,217915;45,65536;7,219632;8,528123;1006,219
3,359983921;1,018247;-1,329908;-10,50508;-0,9034236;0,3631362;-0,1952069;45,65536;7,219632;8,528123;1006,219
3,380239487;1,142031;-1,389274;-10,01588;-0,9155722;0,3191355;-0,158846;45,65536;7,219632;8,528123;1006,221
3,397963524;0,4612187;-0,7956105;-8,731728;-0,9251283;0,3147915;-0,1462529;45,66556;7,957551;8,902382;1006,221
3,41821909;-0,6528377;-0,08321376;-7,019525;-0,9355966;0,310937;-0,128826;45,66556;7,957551;8,902382;1006,222
3,438474655;-0,5909457;0,6885494;-5,490773;-0,9216327;0,3041544;-0,1391565;45,66556;7,957551;8,902382;1006,222
3,458730698;-0,2814856;0,8666486;-4,145471;-0,9191827;0,3123376;-0,1762201;45,66556;7,957551;8,902382;1006,224
3,499242306;1,142031;0,2136182;-2,983619;-0,9090651;0,3195933;-0,1825273;45,28847;8,32831;8,527951;1006,23
3,519497395;1,203923;-0,02384736;-2,310968;-0,9119448;0,3220155;-0,1795831;45,28847;8,32831;8,527951;1006,23
3,539749622;0,4612187;-0,08321376;-1,699467;-0,9106032;0,3457203;-0,1875767;45,64445;8,322205;8,077223;1006,23
3,560005665;-0,09580953;-0,1425802;-1,577167;-0,9047388;0,345242;-0,1847512;45,64445;8,322205;8,077223;1006,23
3,580261231;-0,2195936;-0,3206794;-1,699467;-0,9116302;0,3389386;-0,1924467;45,64445;8,322205;8,077223;1006,234
3,597984791;-0,2195936;-0,261313;-1,149116;-0,9162806;0,3225014;-0,176641;45,29848;8,698078;8,904885;1006,234
3,618240833;-0,2195936;-0,261313;-0,2318648;-0,9162651;0,3065312;-0,1763034;45,29848;8,698078;8,904885;1006,234
3,638496399;-0,4671616;-0,2019466;0,7465367;-0,9181437;0,3089567;-0,17096;45,28899;9,371409;8,520373;1006,234
3,658752442;-0,7766218;-0,02384736;1,663788;-0,9151914;0,3249333;-0,1669912;45,28899;9,371409;8,520373;1006,234
3,679008007;-0,9004058;0,332351;2,152989;-0,9100083;0,3525071;-0,1783642;45,28899;9,371409;8,520373;1006,235
3,699263573;-1,766894;-0,02384736;2,458739;-0,8326893;0,3623678;-0,05329971;45,97233;9,058491;8,887815;1006,235
3,719519615;-0,9004058;0,2136182;1,052287;-0,9347401;0,3405924;-0,01867832;45,97233;9,058491;8,887815;1006,241
3,739770889;1,142031;-0,9737096;0,4407863;-0,8567321;0,4129159;-0,2661009;44,92139;9,068838;8,530454;1006,241
3,760026932;3,86528;-1,567374;-0,9045157;-0,9097429;0,2587342;-0,08378417;44,92139;9,068838;8,530454;1006,24
3,780282974;1,203923;-0,261313;1,541488;-0,9529939;0,2896911;-0,0835287;44,92139;9,068838;8,530454;1006,24
3,798006535;-0,7147297;1,400946;4,354392;-0,934072;0,2475413;-0,127005;45,64464;8,690357;8,074548;1006,24
3,8182621;-1,02419;2,113343;5,393944;-0,9363108;0,3641533;-0,1442428;45,64464;8,690357;8,074548;1006,24
3,838518143;0,02797451;1,757145;5,638544;-0,9071457;0,3892864;-0,1804722;45,9525;8,687109;8,131273;1006,238
3,858773709;1,760951;0,8072822;4,048642;-0,8854868;0,3699155;-0,1977453;45,9525;8,687109;8,131273;1006,238
3,879029751;1,884735;0,2136182;3,681741;-0,8701385;0,3693706;-0,2528572;45,9525;8,687109;8,131273;1006,238
3,899285316;0,7087868;-0,6175113;2,88679;-0,8794026;0,3650554;-0,2166504;45,28865;8,696463;8,525277;1006,238
3,919540882;0,02797451;-0,7362441;2,458739;-0,8918561;0,3626479;-0,2025633;45,28865;8,696463;8,525277;1006,24
3,93979311;-0,6528377;-0,3800458;2,70334;-0,9089265;0,3675221;-0,1686007;45,59468;8,324793;8,521408;1006,24
3,960048199;0,3374346;-0,9143433;2,58104;-0,9415805;0,3777578;-0,09827709;45,59468;8,324793;8,521408;1006,241
3,977772236;1,699059;-0,9737096;2,58104;-0,9311913;0,3369346;-0,2423826;45,59468;8,324793;8,521408;1006,241
3,998028278;1,080139;-2,101671;3,375991;-0,9254224;0,3449129;-0,05054788;45,27827;7,590391;8,153692;1006,247
4,018283844;0,3374346;-1,211175;3,681741;-0,9325729;0,3718841;-0,1557798;45,27827;7,590391;8,153692;1006,247
4,03853941;-0,09580953;-0,4394122;4,048642;-0,9228316;0,3457549;-0,155155;44,90918;7,594344;8,098275;1006,249
4,058795452;0,2136506;-0,7362441;4,598992;-0,9151614;0,3506354;-0,1238641;44,90918;7,594344;8,098275;1006,249
4,079051018;0,08986653;0,2136182;5,088193;-0,8967719;0,3525717;-0,1293429;44,90918;7,594344;8,098275;1006,249
4,119562149;-0,5909457;0,4510838;4,965893;-0,87534;0,3984696;-0,2004866;45,64591;7,954321;8,143166;1006,249
4,139814377;-0,5909457;0,3917174;3,559441;-0,8801168;0,4241272;-0,1924928;45,65554;7,587784;8,525449;1006,249
4,160070419;-0,9622978;-0,02384736;1,908389;-0,8763571;0,435248;-0,2020716;45,65554;7,587784;8,525449;1006,247
4,17779398;-0,4671616;-0,4394122;0,3184861;-0,8855768;0,4110458;-0,2026746;45,65554;7,587784;8,525449;1006,247
4,198049545;-0,03391751;-0,9737096;-0,4764651;-0,8960955;0,3916986;-0,1902068;45,65554;7,587784;8,525449;1006,249
4,218305588;-0,03391751;-0,9737096;-0,6599154;-0,9040082;0,364626;-0,1638592;45,65554;7,587784;8,525449;1006,249
4,238561153;-0,1577016;-0,7362441;-0,415315;-0,9056916;0,3898183;-0,1414433;45,6552;6,912838;8,530352;1006,249
4,258816719;-0,09580953;-0,5581449;-1,087966;-0,902935;0,4241672;-0,1522475;45,6552;6,912838;8,530352;1006,249
4,279072762;-0,03391751;-0,1425802;-2,616718;-0,8842353;0,4362978;-0,1320932;45,6552;6,912838;8,530352;1006,255
4,299328327;0,9563549;0,2136182;-4,573522;-0,8807713;0,4430336;-0,1658069;45,27793;6,915445;8,158595;1006,255
4,31958437;2,627439;-0,5581449;-6,958375;-0,8841205;0,4623494;-0,1998167;45,27793;6,915445;8,158595;1006,255
4,339835644;4,298524;-1,270542;-10,13818;-0,890929;0,4773497;-0,1996092;45,28775;6,917059;8,538203;1006,255
4,360091686;5,288796;-1,448641;-12,58418;-0,899552;0,4323947;-0,1531729;45,28775;6,917059;8,538203;1006,255
4,377815724;5,226904;-0,5581449;-13,92949;-0,9326284;0,3763298;-0,08151583;45,28775;6,917059;8,538203;1006,255
4,398071289;4,050956;1,935244;-13,25683;-0,94497;0,3458618;-0,05997178;45,28828;7,960158;8,530625;1006,257
4,418326855;2,813115;4,072434;-12,09498;-0,9615391;0,3390743;-0,06467738;45,28828;7,960158;8,530625;1006,257
4,438582897;0,5231107;6,328357;-10,50508;-0,9560928;0,3095154;-0,09729394;45,28847;8,32831;8,527951;1006,257
4,458838463;-3,128519;7,396952;-7,997927;-0,9318915;0,257634;-0,1857371;45,28847;8,32831;8,527951;1006,257
4,479094505;-7,646636;6,328357;-4,206621;-0,8480167;0,2077043;-0,2800959;45,28847;8,32831;8,527951;1006,257
4,499350071;-12,96935;4,250533;-0,6599154;-0,7705331;0,2429947;-0,3365058;45,3003;9,0665;8,965479;1006,257
4,519605637;-14,94989;2,350809;-1,271416;-0,7191476;0,2287304;-0,5420154;45,3003;9,0665;8,965479;1006,262
4,539857865;-16,74476;-3,288999;-0,7210655;-0,7923352;0,2426585;-0,6066626;44,94249;8,704183;9,355614;1006,262
4,56011343;-13,03124;-9,878669;-2,616718;-0,9386039;0,4711355;-0,5196701;44,94249;8,704183;9,355614;1006,262
4,57783699;-7,1515;-15,75594;-6,224574;-1,023383;0,4901913;-0,3431638;44,94249;8,704183;9,355614;1006,262
4,598093033;1,142031;-22,70181;-9,282079;-1,113046;0,4586218;-0,4070837;45,28847;8,32831;8,527951;1006,262
4,618348599;8,44529;-29,52895;-11,97268;-0,9269621;0,3963977;0,1027176;45,28847;8,32831;8,527951;1006,262
4,638604164;6,712313;-29,76641;-8,915178;-0,9906511;0,2087222;0,20532;45,2677;9,367912;7,697888;1006,262
4,658860207;3,308252;-22,70181;-3,228219;-0,9356282;0,1186865;0,1716324;45,2677;9,367912;7,697888;1006,262
4,679115772;-0,9004058;-12,60952;1,663788;-0,8796684;0,2870989;0,1499087;45,61387;9,360192;6,867552;1006,264
4,699371815;-0,5290537;-1,270542;1,235738;-0,8008201;0,3689391;0,1671641;45,61387;9,360192;6,867552;1006,264
4,719627381;2,070411;10,18717;-2,739018;-0,7723034;0,4740574;0,2401071;45,61387;9,360192;6,867552;1006,267
4,739879131;7,083665;21,28869;-7,753326;-0,8019371;0,4605415;0,2783742;46,27771;9,350838;6,473549;1006,267
4,760135174;11,84935;32,09338;-10,81083;-0,876424;0,3506782;0,2979311;46,27771;9,350838;6,473549;1006,267
4,777858734;9,930697;34,23056;-10,32163;-0,931313;0,2986242;0,4913115;45,94156;9,728325;7,68082;1006,267
4,7981143;2,441763;23,12905;-7,508726;-1,087215;0,2352346;-0,6484314;45,94156;9,728325;7,68082;1006,265
4,818370342;-0,6528377;14,93649;0,7465367;-1,077123;0,01094955;-0,8269647;45,94156;9,728325;7,68082;1006,265
4,838625908;0,08986653;6,209624;5,210494;-0,921731;0,3613188;-0,8895469;45,96322;10,46813;8,497955;1006,263
4,858881951;7,455017;-1,923572;2,64219;-0,7397528;0,4595185;-0,5845359;45,96322;10,46813;8,497955;1006,263
4,879137516;15,50098;2,469542;31,13813;-0,489728;0,09263331;-0,3027607;45,65682;10,10349;8,507173;1006,266
4,899393082;10,6734;-8,86944;63,18078;-0,3518129;0,05279718;-0,07275328;45,65682;10,10349;8,507173;1006,266
4,919649124;-0,7766218;-2,695335;21,23182;-1,491042;1,078262;-0,1425242;45,65682;10,10349;8,507173;1006,264
4,939901352;-8,017988;-4,535694;-1,271416;-1,200903;0,4485178;0,06849454;45,28918;9,739562;8,517699;1006,264
4,960156441;-11,85529;-0,4394122;0,3184861;-1,012894;0,4763784;-0,1636252;45,28918;9,739562;8,517699;1006,262
4,977880478;-3,190411;-3,76393;-1,638317;-0,9877218;0,408716;-0,09606314;45,95212;7,950803;8,136622;1006,262
4,998136044;1,822843;-4,654427;-3,65627;-0,9230278;0,4722001;-0,04604977;45,95212;7,950803;8,136622;1006,261
5,018392086;3,060683;-1,62674;-3,289369;-0,9189308;0,238066;0,0361367;45,95212;7,950803;8,136622;1006,261
5,038647652;-0,7766218;1,99461;0,6242366;-0,9401411;0,2224432;-0,06933111;45,65573;7,955936;8,522774;1006,265
5,058903217;-5,418523;4,903563;4,904743;-0,9209065;0,2707829;-0,1216327;45,65573;7,955936;8,522774;1006,265
5,07915926;-5,294739;4,666098;5,821994;-0,9010831;0,3950243;-0,2397667;45,65592;8,324089;8,5201;1006,263
5,099415302;-1,086082;1,697778;3,19254;-0,8730221;0,4670435;-0,3232759;45,65592;8,324089;8,5201;1006,263
5,119670391;3,060683;-1,982939;0,1350358;-0,864369;0,4167028;-0,3334616;45,65592;8,324089;8,5201;1006,263
5,139922619;2,565547;-3,051533;-0,1095646;-0,8779268;0,2934271;-0,2192409;45,65573;7,955936;8,522774;1006,263
5,160178185;-0,7147297;-2,695335;2,76449;-0,9283487;0,2378058;-0,1753504;45,65573;7,955936;8,522774;1006,26
5,177902222;-3,623655;-1,567374;5,699694;-0,9431999;0,289655;-0,1164066;45,277;8,326427;8,085074;1006,26
5,198157787;-4,242575;-0,5581449;6,983846;-0,945586;0,3888764;-0,1072917;45,277;8,326427;8,085074;1006,258
5,218413353;-2,138246;-0,02384736;6,188895;-0,9206983;0,4222926;-0,096168;45,277;8,326427;8,085074;1006,258
5,238669396;0,7706788;0,1542518;4,782443;-0,9023737;0,4029269;-0,1081042;45,64572;7,58617;8,145841;1006,258
5,258925438;1,080139;0,926015;4,170942;-0,8905636;0,3699873;-0,1369628;45,64572;7,58617;8,145841;1006,258
5,279180527;0,2136506;1,757145;4,048642;-0,8915138;0,3786533;-0,1739861;45,94065;7,94892;7,693746;1006,26
5,299436569;-0,7766218;2,113343;3,375991;-0,8831905;0,4216904;-0,2054955;45,94065;7,94892;7,693746;1006,26
5,319692612;-0,09580953;1,044748;1,419188;-0,8774965;0,4570107;-0,2143942;45,94065;7,94892;7,693746;1006,26
5,339944363;3,308252;-0,1425802;-0,9045157;-0,8313119;0,4194792;-0,448977;45,64553;7,218017;8,148515;1006,26
5,360199928;0,8325708;-0,9737096;-1,577167;-0,8683665;0,4098115;-0,02887705;45,64553;7,218017;8,148515;1006,259
5,377923966;2,070411;-0,854977;0,1350358;-0,9446147;0,2629915;-0,1537441;45,96157;7,216114;8,52158;1006,259
5,398179531;1,884735;-1,745473;2,336439;-0,962045;0,2369024;-0,1113819;45,96157;7,216114;8,52158;1006,259
5,418435574;-0,3433776;-0,08321376;6,678095;-0,9723285;0,2935649;-0,07557754;45,96157;7,216114;8,52158;1006,259
5,438690662;-0,03391751;0,6885494;8,329148;-0,9175773;0,3293401;-0,1240309;45,28809;7,592006;8,5333;1006,259
5,458946705;-1,271758;2,766373;8,818349;-0,8641887;0,4270749;-0,1613068;45,28809;7,592006;8,5333;1006,259
5,479202747;0,7706788;1,935244;6,127745;-0,8339211;0,4565296;-0,225945;45,64553;7,218017;8,148515;1006,257
5,49945879;1,327707;0,5698166;3,00909;-0,8438922;0,4734879;-0,2064076;45,64553;7,218017;8,148515;1006,257
5,519713879;2,627439;-0,261313;0,8076869;-0,8791452;0,4381157;-0,2309343;45,64553;7,218017;8,148515;1006,26
5,539966107;2,008519;-1,686106;-1,149116;-0,8905022;0,4845087;-0,2824477;45,64538;6,911223;8,150743;1006,26
5,560221672;0,5850027;-2,27977;-2,372118;-0,8795398;0,3965965;-0,1474425;45,64538;6,911223;8,150743;1006,26
5,577945709;0,02797451;-1,923572;-2,433268;-0,8823745;0,3632078;-0,1428944;45,64519;6,54307;8,153418;1006,26
5,598200798;-0,1577016;-1,448641;-1,638317;-0,9073035;0,3448389;-0,1172521;45,64519;6,54307;8,153418;1006,258
5,618456841;0,4612187;-1,151809;-0,9045157;-0,9162959;0,3941782;-0,1345441;45,64519;6,54307;8,153418;1006,258
5,638712883;0,2136506;-0,3206794;-1,210266;-0,8980334;0,4348688;-0,1088255;45,9616;7,277472;8,521134;1006,256
5,658968926;0,9563549;0,4510838;-2,555568;-0,8836415;0,3946854;-0,1257278;45,9616;7,277472;8,521134;1006,256
5,679224014;0,8944628;0,8072822;-3,350519;-0,896224;0,4328728;-0,1589875;45,94995;6,907436;8,080932;1006,259
5,699480057;1,327707;1,044748;-4,390071;-0,8940551;0,3980009;-0,181978;45,94995;6,907436;8,080932;1006,259
5,719736099;1,080139;0,8072822;-4,695822;-0,8883547;0,3723389;-0,1938373;45,26646;6,913562;7,715718;1006,259
5,73998785;-0,09580953;0,5698166;-4,328921;-0,8971559;0,3607141;-0,1991508;45,26646;6,913562;7,715718;1006,259
5,760243416;-1,086082;0,8072822;-4,084321;-0,8981062;0,3853994;-0,196026;45,26646;6,913562;7,715718;1006,254
5,777966976;-1,33365;0,4510838;-4,390071;-0,8876581;0,3888156;-0,175863;45,64557;7,279376;8,148069;1006,254
5,798223019;-1,395542;0,3917174;-5,429623;-0,8835973;0,4149698;-0,1602468;45,64557;7,279376;8,148069;1006,254
5,818479061;-0,8385138;0,6885494;-6,469174;-0,8999117;0,3811038;-0,1459209;45,64557;7,279376;8,148069;1006,259
5,83873415;-1,147974;0,7479158;-6,346874;-0,9189677;0,3520461;-0,156585;45,64408;7,585901;8,082572;1006,26
5,858990193;-1,147974;0,9853814;-5,246172;-0,9195977;0,3137964;-0,1704189;45,64408;7,585901;8,082572;1006,26
5,879246235;-1,457434;0,9853814;-4,145471;-0,9038339;0,3466878;-0,1900494;45,95193;7,582652;8,139297;1006,259
5,899502277;-1,02419;0,332351;-4,634672;-0,8778881;0,3989409;-0,2100948;45,95193;7,582652;8,139297;1006,259
5,919757366;-0,4052696;-0,3206794;-6,408024;-0,8832463;0,4052292;-0,2109452;46,32921;7,580044;8,511054;1006,259
5,940009117;1,203923;-1,151809;-7,875627;-0,9052169;0,3926737;-0,181426;46,32921;7,580044;8,511054;1006,259
5,96026516;2,317979;-1,982939;-7,753326;-0,9162218;0,3196509;-0,1328082;46,32921;7,580044;8,511054;1006,261
5,977989197;0,5850027;-0,6175113;-5,979974;-0,9229923;0,3007755;-0,1314611;45,27846;7,958543;8,151017;1006,261
5,998244286;-0,7766218;0,5104502;-4,328921;-0,9303585;0,3060888;-0,1376007;45,27846;7,958543;8,151017;1006,261
6,018500328;-1,581218;1,697778;-3,167069;-0,9202866;0,3447517;-0,185073;44,92101;8,332533;8,535803;1006,261
6,038756371;-0,6528377;1,400946;-3,65627;-0,9157792;0,3606908;-0,212449;44,92101;8,332533;8,535803;1006,261
6,059012413;0,5231107;0,1542518;-4,267771;-0,9101452;0,3664817;-0,2278794;44,92101;8,332533;8,535803;1006,258
6,079267502;0,7087868;-0,6175113;-4,451221;-0,8981251;0,3268346;-0,2008925;45,9525;8,687109;8,131273;1006,258
6,099523544;-0,03391751;-0,7362441;-3,71742;-0,9079717;0,3152497;-0,1729387;45,9525;8,687109;8,131273;1006,254
6,119779587;-1,209866;-0,261313;-2,433268;-0,9188212;0,3060814;-0,1473623;45,64647;9,058779;8,135142;1006,254
6,140031338;-1,33365;0,1542518;-1,516017;-0,9159608;0,3365686;-0,150009;45,64647;9,058779;8,135142;1006,254
6,157754421;-1,086082;-0,08321376;-1,393717;-0,9226322;0,3558907;-0,1777181;45,64647;9,058779;8,135142;1006,254
6,178010464;-0,09580953;-0,3800458;-1,577167;-0,9140201;0,3544292;-0,1884258;45,64628;8,690626;8,137816;1006,253
6,198266506;0,02797451;-0,4987786;-1,821767;-0,9080577;0,3394408;-0,1785029;45,64628;8,690626;8,137816;1006,253
6,218522549;-0,6528377;-0,1425802;-1,149116;-0,9111647;0,3385004;-0,154862;45,96213;8,32057;8,513556;1006,253
6,23883152;-0,5290537;0,1542518;-1,149116;-0,9184765;0,342851;-0,1566732;45,96213;8,32057;8,513556;1006,253
6,259087563;-0,03391751;0,2136182;-1,271416;-0,9160277;0,3588256;-0,154145;45,96213;8,32057;8,513556;1006,257
6,279342651;0,7087868;0,2136182;-1,882917;-0,9093997;0,3665551;-0,1676405;45,95284;9,362055;8,12637;1006,257
6,299598694;0,2755426;5,972158;1,052287;-0,9943121;-0,05459586;0,1692426;45,95284;9,362055;8,12637;1006,255
6,319854736;-4,242575;6,44709;-0,2930149;-1,034158;0,2786745;-0,3623111;45,96232;8,688723;8,510881;1006,255
6,340106487;-4,304467;1,579045;-0,1095646;-0,8611774;0,3712361;-0,3136633;45,96232;8,688723;8,510881;1006,253
6,357830048;0,3374346;-0,02384736;-0,5987653;-0,8877114;0,2533405;-0,1486499;45,96232;8,688723;8,510881;1006,253
6,37808609;2,008519;-0,6768777;-1,149116;-0,9010047;0,429443;-0,1922237;45,95268;9,055262;8,128599;1006,252
6,398341656;2,194195;-1,864206;-2,066368;-0,9013417;0,3554544;-0,1451735;45,95268;9,055262;8,128599;1006,252
6,418597698;2,008519;-1,270542;-1,944067;-0,9084554;0,337561;-0,1322467;45,27917;9,369795;8,140765;1006,253
6,438853264;0,5850027;-0,3206794;-1,271416;-0,9369611;0,3056217;-0,1216301;45,27917;9,369795;8,140765;1006,253
6,45910883;0,8325708;0,2136182;-0,354165;-0,9121708;0,3322523;-0,1187601;45,27917;9,369795;8,140765;1006,253
6,479364872;2,008519;0,629183;-0,354165;-0,9219701;0,3757995;-0,1230828;45,65611;8,692242;8,517425;1006,253
6,499620915;1,637167;0,9853814;-1,026816;-0,9277153;0,3505903;-0,1569875;45,65611;8,692242;8,517425;1006,251
6,519876003;0,4612187;1,400946;-0,2930149;-0,8971803;0,3113446;-0,2039342;45,27902;9,063002;8,142994;1006,251
6,540128231;0,1517586;1,104114;0,01273562;-0,901432;0,3311984;-0,1931065;45,27902;9,063002;8,142994;1006,248
6,557851792;-2,323922;1,400946;-0,1095646;-0,9370629;0,3307315;-0,1676712;45,27902;9,063002;8,142994;1006,248
6,578107834;-1,890678;0,5104502;-1,332566;-0,8867741;0,4197351;-0,2204162;45,635;9,056896;7,692266;1006,244
6,5983634;0,08986653;-0,9143433;-4,328921;-0,8890291;0,4391109;-0,2052763;45,635;9,056896;7,692266;1006,244
6,618618965;0,8944628;-0,9737096;-6,897225;-0,9082219;0,410619;-0,1484582;45,9525;8,687109;8,131273;1006,243
6,638875008;0,2755426;-0,5581449;-7,569876;-0,9334119;0,3153174;-0,1090489;45,9525;8,687109;8,131273;1006,243
6,65913105;-1,02419;0,6885494;-5,918824;-0,9340627;0,2475899;-0,08700117;45,9525;8,687109;8,131273;1006,245
6,679387093;-3,376087;2,528908;-3,228219;-0,9429854;0,2441333;-0,1409185;45,65644;9,367188;8,512522;1006,245
6,699642182;-4,552035;2,885106;-0,7822156;-0,9263206;0,2992341;-0,2042171;45,65644;9,367188;8,512522;1006,243
6,719898224;-3,499871;1,638412;-0,6599154;-0,9168233;0,3267563;-0,2594955;45,64662;9,365574;8,132914;1006,243
6,740149975;-0,6528377;-0,4987786;-1,087966;-0,8869507;0,3499754;-0,2779168;45,64662;9,365574;8,132914;1006,243
6,757874012;1,265815;-2,27977;-1,821767;-0,8880941;0,3238702;-0,254042;45,64662;9,365574;8,132914;1006,243
6,778129101;0,02797451;-2,45787;-0,7210655;-0,9161384;0,2639525;-0,1684959;45,97412;9,365553;8,948855;1006,242
6,798385143;-0,4052696;-1,389274;1,847239;-0,9764401;0,1822233;-0,1001562;45,97412;9,365553;8,948855;1006,242
6,818641186;-4,056899;-0,3206794;6,066595;-0,9605271;0,2649804;-0,1048788;45,28918;9,739562;8,517699;1006,24
6,838897228;-3,437979;0,8666486;6,739245;-0,9507011;0,3831365;-0,04993505;45,28918;9,739562;8,517699;1006,24
6,859152317;-1,457434;2,053977;3,498291;-0,8913396;0,5229473;-0,1124386;45,28918;9,739562;8,517699;1006,238
6,879408359;1,760951;2,588274;-1,210266;-0,8835733;0,4509857;-0,3917488;45,27936;9,737947;8,138091;1006,238
6,899664402;1,142031;0,6885494;-3,228219;-0,8616144;0,3279197;-0,1159606;45,27936;9,737947;8,138091;1006,237
6,919919968;2,070411;-0,6175113;-1,944067;-0,9620581;0,2807062;-0,3061836;45,28884;9,064615;8,522602;1006,237
6,940171242;3,060683;-3,76393;1,174587;-0,9815731;0,208187;-0,2386744;45,28884;9,064615;8,522602;1006,237
6,957895279;1,265815;-2,932801;4,598992;-0,9841192;0,2239003;-0,05101957;45,28884;9,064615;8,522602;1006,237
6,978151321;-0,6528377;-0,7956105;8,390298;-0,9160472;0,2379688;-0,0448655;45,27902;9,063002;8,142994;1006,232
6,998407364;-1,828786;1,697778;8,451448;-0,8671424;0,4247452;-0,08610944;45,27902;9,063002;8,142994;1006,232
7,018663406;-0,03391751;2,528908;4,965893;-0,8718435;0,4967305;-0,1871049;45,27902;9,063002;8,142994;1006,227
7,038918495;2,689331;1,044748;0,07388572;-0,8986577;0,4705275;-0,2357367;45,27902;9,063002;8,142994;1006,227
7,059174538;3,741496;-0,2019466;-0,5987653;-0,9344919;0,2760079;-0,1985568;45,27883;8,694849;8,145669;1006,226
7,079430103;3,060683;-0,261313;2,58104;-0,9439163;0,1903663;-0,1799518;45,27883;8,694849;8,145669;1006,226
7,099686146;-0,03391751;0,332351;7,044996;-0,9279758;0,2325186;-0,14552;45,27883;8,694849;8,145669;1006,224
7,140193462;-1,95257;1,34158;8,206848;-0,8816423;0,418796;-0,1983085;45,6461;8,322474;8,140491;1006,224
7,1579175;-0,9004058;0,2729846;5,760844;-0,8798511;0,4531451;-0,2086205;45,64628;8,690626;8,137816;1006,224
7,178173542;1,018247;-0,854977;2,88679;-0,8789272;0,4226494;-0,2142074;45,64628;8,690626;8,137816;1006,224
7,198428631;1,513383;-1,62674;1,602638;-0,8964623;0,3520229;-0,1828497;45,64628;8,690626;8,137816;1006,224
7,218684673;1,203923;-1,745473;2,51989;-0,9316661;0,3099272;-0,1645425;45,27864;8,326696;8,148343;1006,22
7,238940716;0,3993267;-0,7362441;4,660142;-0,9292881;0,2901272;-0,1305267;45,27864;8,326696;8,148343;1006,22
7,259196281;0,9563549;0,5698166;6,555795;-0,9582138;0,3139007;-0,0721695;45,95268;9,055262;8,128599;1006,219
7,279451847;0,5231107;1,935244;7,962248;-0,9348109;0,3380702;-0,1030449;45,95268;9,055262;8,128599;1006,219
7,299707413;1,142031;2,053977;8,512598;-0,882241;0,3438137;-0,1724711;45,95268;9,055262;8,128599;1006,223
7,319963455;0,08986653;1,875877;8,512598;-0,8791062;0,3969327;-0,2693822;45,65573;7,955936;8,522774;1006,223
7,340215683;-1,95257;0,8072822;7,839948;-0,8687527;0,3630246;-0,2982343;45,65573;7,955936;8,522774;1006,223
7,357939243;-3,561763;-0,7362441;7,656497;-0,8713327;0,3829001;-0,2700732;45,65539;7,28099;8,527678;1006,223
7,378194809;-2,757167;-2,27977;7,411897;-0,9000645;0,3815252;-0,1974862;45,65539;7,28099;8,527678;1006,225
7,398450852;-2,757167;-2,695335;6,861546;-0,9027134;0,4125732;-0,1350037;45,65539;7,28099;8,527678;1006,225
7,418706417;-1,271758;-2,220404;6,800396;-0,9054441;0,3448315;-0,1240194;45,65539;7,28099;8,527678;1006,225
7,43896246;-0,7147297;-1,508007;7,717647;-0,9096453;0,379694;-0,108237;45,65539;7,28099;8,527678;1006,225
7,459218025;-2,200138;-0,9143433;7,656497;-0,9067624;0,4265915;-0,1473654;45,64538;6,911223;8,150743;1006,225
7,479473591;-2,447706;-0,6175113;5,883144;-0,8715096;0,4710642;-0,2008354;45,64538;6,911223;8,150743;1006,225
7,499729633;0,2755426;-1,62674;2,458739;-0,8568568;0,5538403;-0,1896396;45,64538;6,911223;8,150743;1006,229
7,519985676;5,72204;-3,229633;-3,53397;-0,8590811;0,6017745;-0,1703863;45,65539;7,28099;8,527678;1006,229
7,54023695;9,621238;-3,76393;-8,609427;-0,8779185;0,5016392;-0,1281961;45,65539;7,28099;8,527678;1006,227
7,557960987;10,11637;-2,992167;-9,587829;-0,9189234;0,35355;-0,1136766;45,26609;6,177257;7,721067;1006,227
7,578216553;6,588529;-0,6768777;-6,774925;-0,9874775;0,2887103;-0,08317254;45,26609;6,177257;7,721067;1006,226
7,598472595;3,927172;3,775602;-1,516017;-0,9998652;0,242409;0,05149171;45,26609;6,177257;7,721067;1006,226
7,618728638;5,72204;8,346815;1,113437;-0,9883015;0,3702731;0,1296392;45,64538;6,911223;8,150743;1006,224
7,638983727;9,249886;11,0183;2,397589;-1,06609;0,4276408;-0,02951488;45,64538;6,911223;8,150743;1006,224
7,659239769;9,002317;11,61197;7,839948;-1,036425;0,1994101;-0,2752847;45,26665;7,281714;7,713044;1006,219
7,679495812;4,669876;6,328357;52,29607;-0,9346137;-0,04101818;-0,2264813;45,26665;7,281714;7,713044;1006,219
7,699751854;2,441763;10,54337;80,73086;-0,7741147;0,1546987;-0,5131841;45,26665;7,281714;7,713044;1006,217
7,720006943;0,5850027;10,484;93,69468;-0,5984282;0,2227003;-0,3650191;45,9616;7,277472;8,521134;1006,217
7,740258694;-0,5290537;1,222847;107,5758;-0,3306631;0,3555236;-0,269778;45,9616;7,277472;8,521134;1006,216
7,757982731;-2,323922;-6,732251;116,0145;-0,2522591;0,4121526;-0,2898572;45,65392;4,397129;8,548627;1006,216
7,778238774;-5,789876;-15,22165;117,9713;-0,3052366;0,3942215;-0,2933141;45,65392;4,397129;8,548627;1006,218
7,798494816;-14,33097;-22,22688;107,7592;-0,5068113;0,4996074;-0,3254123;45,65392;4,397129;8,548627;1006,218
7,818749905;-10,92691;-9,166272;-7,814476;-0,6542773;-0,1795885;-1,64287;44,56104;0,4847176;9,043588;1006,213
7,839005947;-8,203665;-21,51448;6,127745;-0,8793257;0,5539623;-0,08192154;44,56104;0,4847176;9,043588;1006,213
7,85926199;-4,490143;-10,47233;4,721292;-0,9194455;0,8674893;0,2659428;44,53757;-3,813893;8,252305;1006,21
7,879518032;-4,675819;-4,59506;9,91905;-0,9727123;0,3857236;0,09491201;44,53757;-3,813893;8,252305;1006,21
7,899773121;-2,447706;0,2136182;11,2032;-0,7826911;0,5484744;0,150761;44,53757;-3,813893;8,252305;1006,208
7,920029163;-3,561763;8,465548;13,34346;-0,7199271;0,5821975;0,003882602;44,89318;-4,556303;7,806926;1006,208
7,940280914;-5,356631;11,67133;12,4262;-0,7309567;0,6714598;-0,2149723;44,89318;-4,556303;7,806926;1006,206
7,958004951;-6,037444;9,712242;8,818349;-0,7051226;0,7743781;-0,3589069;44,15828;-4,547859;7,822629;1006,206
7,978260994;-1,581218;2,469542;1,847239;-0,691411;0,8047904;-0,426735;44,15828;-4,547859;7,822629;1006,21
7,998516083;3,308252;-4,59506;-3,59512;-0,7332615;0,6872998;-0,3218019;44,15828;-4,547859;7,822629;1006,21
8,018772125;3,927172;-6,791617;-4,512372;-0,7856256;0,5615944;-0,2033367;43,79049;-5,218584;7,835383;1006,207
8,039028168;2,132303;-4,891892;-2,005217;-0,810204;0,5210441;-0,1113867;43,79049;-5,218584;7,835383;1006,207
8,059283733;0,02797451;-1,329908;0,3184861;-0,791855;0,552595;-0,03996455;43,80195;-5,216701;8,27826;1006,205
8,079539299;-0,4052696;1,816511;1,541488;-0,7746404;0,6015057;-0,01994427;43,80195;-5,216701;8,27826;1006,205
8,099795342;1,884735;2,528908;0,6242366;-0,7748417;0,6537093;-0,07248721;44,14827;-4,917626;7,445695;1006,202
8,120050907;3,432036;2,588274;-0,5376152;-0,7595995;0,6652061;-0,1747221;44,14827;-4,917626;7,445695;1006,202
8,13777113;3,55582;2,053977;-2,616718;-0,7366394;0,6617445;-0,2429541;44,14827;-4,917626;7,445695;1006,202
8,158026695;3,060683;2,707007;-3,47282;-0,7268031;0,6017929;-0,1973307;43,80211;-4,909907;8,276032;1006,203
8,178282261;3,184468;0,3917174;-4,818122;-0,7447895;0,602705;-0,2376174;43,80211;-4,909907;8,276032;1006,203
8,198538303;2,441763;-1,389274;-4,512372;-0,7821022;0,5832923;-0,2706537;43,80211;-4,909907;8,276032;1006,203
8,218793869;2,256087;-2,576602;-3,96202;-0,7838972;0,5209188;-0,2230011;43,79049;-5,218584;7,835383;1006,203
8,239049912;0,3993267;-1,923572;-2,310968;-0,767222;0,5756795;-0,1677386;43,79049;-5,218584;7,835383;1006,204
8,259305477;-1,33365;-0,854977;-2,127518;-0,7660823;0,5994596;-0,1135553;44,16956;-4,914129;8,26818;1006,204
8,279561043;-1,395542;0,03551903;-2,922469;-0,756613;0,6396105;-0,1311258;44,16956;-4,914129;8,26818;1006,204
8,299817085;-0,2814856;-0,02384736;-4,573522;-0,7822775;0,6400924;-0,1245841;44,16956;-4,914129;8,26818;1006,204
8,320073128;0,8325708;0,09488543;-5,062722;-0,7904413;0,5882639;-0,1591857;44,16956;-4,914129;8,26818;1006,206
8,337792873;0,7087868;0,2136182;-4,451221;-0,7860829;0,5597087;-0,1618996;44,16956;-4,914129;8,26818;1006,206
8,358048439;-0,4052696;0,332351;-4,756972;-0,753144;0,6220996;-0,2050619;44,15809;-4,916012;7,825303;1006,209
8,378304005;-1,209866;1,044748;-6,163424;-0,7546061;0,636182;-0,1653978;44,15809;-4,916012;7,825303;1006,209
8,398560047;-0,5290537;1,163481;-8,059077;-0,7670051;0,6323279;-0,1469865;44,16975;-4,545976;8,265506;1006,21
8,41881609;1,018247;0,332351;-9,098628;-0,7943866;0,608584;-0,1628161;44,16975;-4,545976;8,265506;1006,21
8,439072132;2,317979;-0,9737096;-9,587829;-0,7945877;0,5799612;-0,2199449;44,16975;-4,545976;8,265506;1006,21
8,459327221;2,503655;-1,211175;-8,976328;-0,7843714;0,5272593;-0,1824535;44,15828;-4,547859;7,822629;1006,21
8,479583264;1,637167;-0,854977;-8,181377;-0,773586;0,5393729;-0,1737828;44,15828;-4,547859;7,822629;1006,21
8,499839306;-0,09580953;-0,7956105;-8,303678;-0,7590002;0,5988631;-0,2085836;44,15884;-3,443402;7,814606;1006,21
8,520095348;0,1517586;-0,261313;-9,71013;-0,7627317;0,6061843;-0,1564253;44,15884;-3,443402;7,814606;1006,21
8,537814617;0,5231107;0,2136182;-10,26048;-0,8022267;0,5699028;-0,1312726;44,15884;-3,443402;7,814606;1006,21
8,558070183;0,3374346;0,4510838;-9,404379;-0,8321539;0,522431;-0,1578928;44,53776;-3,44574;8,249631;1006,209
8,578326225;-0,6528377;0,926015;-8,059077;-0,8226881;0,5185384;-0,1782709;44,53776;-3,44574;8,249631;1006,209
8,598582268;-0,8385138;0,7479158;-6,897225;-0,8059157;0,5286862;-0,1961896;44,53776;-3,44574;8,249631;1006,211
8,61883831;-0,2814856;0,03551903;-6,530324;-0,7865607;0,540786;-0,2015869;44,53776;-3,44574;8,249631;1006,211
8,659349442;-1,64311;0,3917174;-5,246172;-0,8118836;0,5083903;-0,1693195;44,90521;-3,449962;8,241778;1006,209
8,679605484;-3,066627;1,104114;-4,145471;-0,8235432;0,5233894;-0,1685786;44,90521;-3,449962;8,241778;1006,209
8,69986105;-3,004735;1,638412;-3,105919;-0,8166786;0,5446938;-0,1621933;44,90556;-2,775016;8,236876;1006,209
8,720116615;-2,633383;1,34158;-3,59512;-0,8063324;0,5833838;-0,1874977;44,90556;-2,775016;8,236876;1006,209
8,737836361;-2,014462;0,8072822;-4,206621;-0,7961913;0,571282;-0,193016;44,90556;-2,775016;8,236876;1006,209
8,758092404;-0,7766218;-0,1425802;-5,429623;-0,7925858;0,5766274;-0,176137;44,91557;-2,405249;8,613809;1006,209
8,778348446;-0,2195936;-0,08321376;-5,674223;-0,8147659;0,5451756;-0,164619;44,91557;-2,405249;8,613809;1006,209
8,798604012;-0,7766218;0,1542518;-5,185022;-0,824286;0,5403512;-0,1491388;44,5272;-1,66822;7,793827;1006,206
8,818859577;-1,705002;0,926015;-5,185022;-0,8063835;0,5645507;-0,1534475;44,5272;-1,66822;7,793827;1006,206
8,83911562;-1,457434;1,104114;-5,674223;-0,7944438;0,5543714;-0,1705347;44,5272;-1,66822;7,793827;1006,206
8,859371186;-0,4671616;0,5698166;-6,408024;-0,8088045;0,5664389;-0,1919623;44,89428;-2,408746;7,791324;1006,206
8,879627228;0,2755426;-0,2019466;-6,958375;-0,826733;0,5456247;-0,1895507;44,89428;-2,408746;7,791324;1006,204
8,89988327;0,5850027;-0,261313;-6,958375;-0,8201103;0,5079061;-0,1668269;45,26229;-1,308511;7,775449;1006,204
8,920138359;0,9563549;-0,3800458;-5,918824;-0,8241457;0,509342;-0,1788205;45,26229;-1,308511;7,775449;1006,207
8,937858582;1,203923;-0,6175113;-5,551923;-0,8262072;0,538369;-0,18673;45,26229;-1,308511;7,775449;1006,207
8,958114624;0,8944628;-0,261313;-5,429623;-0,8155214;0,5229329;-0,148425;44,91594;-1,668944;8,60846;1006,203
8,97837019;0,5850027;0,332351;-5,185022;-0,8290991;0,5166381;-0,1468922;44,91594;-1,668944;8,60846;1006,203
8,998626232;0,2136506;0,7479158;-4,390071;-0,8224313;0,497752;-0,1587006;44,90612;-1,670558;8,228852;1006,2
9,018881321;0,3374346;0,7479158;-3,90087;-0,8362622;0,4957882;-0,1773688;44,90612;-1,670558;8,228852;1006,2
9,039137363;0,8944628;0,5104502;-3,167069;-0,8380079;0,509795;-0,1998763;44,90612;-1,670558;8,228852;1006,198
9,059393406;0,5231107;-0,2019466;-2,066368;-0,842818;0,4914061;-0,1970997;44,90649;-0,934253;8,223503;1006,198
9,079649448;1,142031;-0,9143433;-1,149116;-0,828688;0,475928;-0,1944972;44,90649;-0,934253;8,223503;1006,201
9,099904537;1,080139;-0,9143433;-0,1707147;-0,8211395;0,5049961;-0,171662;45,2741;-0,6316812;8,213423;1006,201
9,12016058;0,2136506;-0,7362441;-0,1095646;-0,8197023;0,5282263;-0,1719494;45,2741;-0,6316812;8,213423;1006,201
9,137880325;0,2136506;-0,261313;0,07388572;-0,8211353;0,5035922;-0,1321533;45,2741;-0,6316812;8,213423;1006,201
9,158136368;0,5231107;0,03551903;0,6853867;-0,8288266;0,5040335;-0,1648418;45,27376;-1,306628;8,218326;1006,199
9,17839241;0,2136506;0,03551903;1,541488;-0,8522492;0,4773946;-0,1749558;45,27376;-1,306628;8,218326;1006,199
9,198647499;0,02797451;0,2729846;3,314841;-0,8497685;0,4696568;-0,1711962;44,53904;-0,9300313;8,231355;1006,197
9,218903542;-0,7147297;0,4510838;5,088193;-0,831378;0,4803049;-0,1761144;44,53904;-0,9300313;8,231355;1006,197
9,239159584;-1,457434;1,104114;6,188895;-0,8197312;0,5166076;-0,1749458;44,53904;-0,9300313;8,231355;1006,2
9,259415627;-1,209866;0,926015;5,760844;-0,8008425;0,5562968;-0,1771972;44,89484;-1,304289;7,7833;1006,2
9,279671192;-0,9622978;0,5698166;5,210494;-0,8033466;0,5673726;-0,2218937;44,89484;-1,304289;7,7833;1006,198
9,299926758;-1,02419;-0,3206794;3,804041;-0,8033981;0,5795149;-0,1861178;44,91631;-0,9326386;8,603111;1006,198
9,3201828;-0,7766218;-0,6768777;2,458739;-0,7929491;0,5713154;-0,1665417;44,91631;-0,9326386;8,603111;1006,196
9,337902546;-0,5909457;-0,3206794;1,786088;-0,8095077;0,5466212;-0,1714092;44,91631;-0,9326386;8,603111;1006,196
9,358158588;-0,1577016;-0,6175113;1,786088;-0,8271485;0,5437431;-0,1447402;44,88483;-1,674056;7,406367;1006,195
9,378414631;-0,4052696;-0,08321376;1,541488;-0,820017;0,5616383;-0,1562213;44,88483;-1,674056;7,406367;1006,195
9,39866972;-0,09580953;-0,261313;0,6853867;-0,8055919;0,5761491;-0,1673282;44,90612;-1,670558;8,228852;1006,195
9,418925762;0,7706788;-0,2019466;-0,415315;-0,8011556;0,5669614;-0,1626385;44,90612;-1,670558;8,228852;1006,195
9,439181328;1,327707;-0,4394122;-1,026816;-0,8130379;0,5553191;-0,1814146;44,5272;-1,66822;7,793827;1006,19
9,45943737;1,265815;-0,2019466;-1,149116;-0,8193373;0,5306346;-0,1815709;44,5272;-1,66822;7,793827;1006,19
9,479693413;0,7706788;-0,3800458;-0,8433657;-0,8290217;0,5112742;-0,1801973;44,5272;-1,66822;7,793827;1006,186
9,499948502;0,3993267;-0,08321376;0,3796362;-0,8211151;0,5040306;-0,1697432;44,90612;-1,670558;8,228852;1006,186
9,520204544;0,6468948;0,09488543;0,8076869;-0,8127316;0,5316336;-0,1580153;44,90612;-1,670558;8,228852;1006,183
9,537924767;0,4612187;0,03551903;0,8076869;-0,8158671;0,5427426;-0,1752327;44,89465;-1,672442;7,785975;1006,183
9,558180332;1,018247;-0,02384736;0,929987;-0,818745;0,5219334;-0,1734623;44,89465;-1,672442;7,785975;1006,181
9,578436375;1,203923;-0,08321376;1,358038;-0,8173587;0,520475;-0,1792738;44,89465;-1,672442;7,785975;1006,181
9,598691464;1,142031;-0,2019466;1,908389;-0,8178273;0,5219285;-0,1778097;44,89465;-1,672442;7,785975;1006,182
9,618947506;0,8325708;-0,02384736;2,458739;-0,8167897;0,5209674;-0,1725278;44,89465;-1,672442;7,785975;1006,182
9,639203549;0,5231107;0,03551903;2,82564;-0,8143771;0,5374224;-0,1728866;44,53867;-1,666337;8,236704;1006,181
9,659459591;0,1517586;-0,2019466;2,51989;-0,8072897;0,5596692;-0,1877018;44,53867;-1,666337;8,236704;1006,181
9,679715634;0,2136506;-0,08321376;2,458739;-0,8100442;0,5417762;-0,175785;44,53867;-1,666337;8,236704;1006,177
9,699970722;0,4612187;-0,2019466;2,70334;-0,8177742;0,5229017;-0,1734638;44,52739;-1,300067;7,791152;1006,177
9,71769476;0,3374346;-0,2019466;3,13139;-0,8153007;0,5374268;-0,1690211;44,52739;-1,300067;7,791152;1006,176
9,73794651;0,3993267;-0,3206794;2,88679;-0,8008142;0,5587195;-0,1747657;44,53848;-2,034489;8,239378;1006,176
9,758202553;0,2136506;-0,02384736;2,458739;-0,8023027;0,5616198;-0,1771336;44,53848;-2,034489;8,239378;1006,172
9,778458595;-0,2195936;0,09488543;1,969539;-0,7989156;0,552908;-0,1786941;44,53848;-2,034489;8,239378;1006,172
9,798713684;-0,5909457;0,2729846;1,908389;-0,8035606;0,5476031;-0,1618239;44,89465;-1,672442;7,785975;1006,169
9,818969727;-0,3433776;0,3917174;1,724938;-0,8017961;0,566462;-0,1751674;44,89465;-1,672442;7,785975;1006,169
9,839225769;-0,2195936;0,03551903;1,174587;-0,8096635;0,5679016;-0,1827826;44,89428;-2,408746;7,791324;1006,171
9,859481335;-0,03391751;-0,4987786;0,5630865;-0,7955713;0,5761353;-0,1818935;44,89428;-2,408746;7,791324;1006,171
9,879737377;-0,4671616;-0,02384736;-0,04841447;-0,7938541;0,5698696;-0,1612436;44,89428;-2,408746;7,791324;1006,169
9,899992943;-1,147974;0,629183;-0,6599154;-0,788111;0,5727673;-0,1680257;43,80339;-2,394198;8,257756;1006,169
9,917716503;-1,64311;1,044748;-1,454867;-0,785886;0,5640364;-0,1849971;43,80339;-2,394198;8,257756;1006,168
9,937968731;-0,9622978;0,3917174;-2,310968;-0,7966916;0,5858002;-0,1933616;44,90593;-2,038711;8,231526;1006,168
9,958224773;-0,03391751;-0,2019466;-3,289369;-0,7960282;0,5679101;-0,180035;44,90593;-2,038711;8,231526;1006,166
9,978479862;0,3993267;-0,3206794;-3,90087;-0,8114772;0,5717854;-0,172125;44,90593;-2,038711;8,231526;1006,166
9,998735905;-0,3433776;-0,02384736;-4,267771;-0,8005517;0,5485815;-0,1541354;44,17102;-2,030267;8,24723;1006,17
10,01899147;-1,086082;0,926015;-3,90087;-0,8117527;0,5088872;-0,1587131;44,17102;-2,030267;8,24723;1006,17
10,03924751;-1,64311;1,044748;-2,983619;-0,8198597;0,5422465;-0,1838703;44,91594;-1,668944;8,60846;1006,17
10,05950356;-1,519326;0,4510838;-3,105919;-0,8107792;0,5499793;-0,1954639;44,91594;-1,668944;8,60846;1006,17
10,0797596;-0,7766218;0,1542518;-2,861319;-0,8098342;0,5296971;-0,1595094;44,91594;-1,668944;8,60846;1006,169
10,10001469;0,1517586;-0,2019466;-2,677868;-0,8211014;0,5311354;-0,1670886;45,2621;-1,676664;7,778123;1006,169
10,11773872;0,2136506;-0,3800458;-2,249818;-0,8230547;0,5287137;-0,1680537;45,2621;-1,676664;7,778123;1006,169
10,13799048;-0,09580953;-0,2019466;-2,066368;-0,8205549;0,5292057;-0,1622922;44,90593;-2,038711;8,231526;1006,169
10,15824652;-0,2814856;0,5104502;-1,577167;-0,8153606;0,5379049;-0,1738358;44,90593;-2,038711;8,231526;1006,167
10,17850256;-0,5909457;0,5104502;-2,005217;-0,8159598;0,5582212;-0,1818394;44,90593;-2,038711;8,231526;1006,167
10,19875765;0,2755426;-0,2019466;-2,983619;-0,7999561;0,5688725;-0,1833586;44,91594;-1,668944;8,60846;1006,169
10,21901369;0,5850027;-0,4394122;-3,289369;-0,8123981;0,5369427;-0,1700201;44,91594;-1,668944;8,60846;1006,169
10,23926973;0,4612187;-0,4394122;-3,350519;-0,8144339;0,5427407;-0,1771757;44,90612;-1,670558;8,228852;1006,168
10,25952578;0,02797451;-0,02384736;-3,47282;-0,8167095;0,536463;-0,1651591;44,90612;-1,670558;8,228852;1006,168
10,27978134;0,3374346;-0,2019466;-3,47282;-0,8171994;0,5233946;-0,1662359;44,90612;-1,670558;8,228852;1006,166
10,30003691;0,4612187;-0,3206794;-3,105919;-0,8217685;0,5253095;-0,1820752;44,89484;-1,304289;7,7833;1006,166
10,31776094;0,5231107;-0,261313;-2,983619;-0,8178003;0,5267711;-0,1753565;44,89484;-1,304289;7,7833;1006,166
10,3380127;0,6468948;-0,3800458;-2,861319;-0,8150597;0,5378869;-0,1887802;44,91594;-1,668944;8,60846;1006,164
10,35826874;0,6468948;-0,5581449;-2,983619;-0,8147879;0,5321057;-0,1671467;44,91594;-1,668944;8,60846;1006,164
10,37852478;0,6468948;-0,4987786;-2,861319;-0,8210175;0,5204958;-0,16092;44,91594;-1,668944;8,60846;1006,161
10,39877987;1,513383;-0,1425802;-2,555568;-0,8238782;0,5006564;-0,1576951;45,62993;-0,9445801;7,764923;1006,161
10,41903591;1,018247;0,2136182;-1,638317;-0,8419127;0,5079033;-0,1622585;45,62993;-0,9445801;7,764923;1006,163
10,43929148;0,6468948;0,4510838;-0,354165;-0,8329589;0,4778723;-0,186241;45,25266;-0,9419727;7,393167;1006,163
10,45954752;0,9563549;-0,02384736;0,3796362;-0,8016297;0,5015759;-0,2046733;45,25266;-0,9419727;7,393167;1006,162
10,47980356;1,142031;-1,389274;-0,7210655;-0,7942338;0,625396;-0,2672532;44,89502;-0,9361365;7,780626;1006,162
10,50005865;1,946627;-2,576602;-4,512372;-0,7960412;0,634168;-0,2165481;44,89502;-0,9361365;7,780626;1006,158
10,51778269;2,008519;-2,517236;-5,979974;-0,8435914;0,5408875;-0,09976877;44,89502;-0,9361365;7,780626;1006,158
10,53803492;0,7087868;-0,2019466;-5,001572;-0,8540244;0,4978332;-0,08173239;44,89484;-1,304289;7,7833;1006,16
10,55829048;-1,890678;2,707007;-2,739018;-0,8492199;0,435395;-0,08957674;44,89484;-1,304289;7,7833;1006,16
10,57854652;-3,747439;4,547365;-0,2318648;-0,8486978;0,4789103;-0,123409;44,90664;-0,6274593;8,221274;1006,162
10,59880209;-3,685547;4,013067;0,3796362;-0,8125521;0,5392998;-0,2215679;44,90664;-0,6274593;8,221274;1006,162
10,61905766;-2,200138;1,935244;-0,5987653;-0,8113314;0,5557328;-0,2397472;44,90664;-0,6274593;8,221274;1006,166
10,6393137;0,3374346;-0,3800458;-2,249818;-0,7757307;0,5523724;-0,2285871;45,2741;-0,6316812;8,213423;1006,166
10,65956974;2,070411;-2,161037;-2,922469;-0,7924249;0,4807654;-0,2078506;45,2741;-0,6316812;8,213423;1006,168
10,67982578;1,327707;-2,042305;-1,210266;-0,8539641;0,4294535;-0,1985052;44,91647;-0,625845;8,600883;1006,168
10,70008135;0,1517586;-1,62674;1,724938;-0,865445;0,4347904;-0,1838764;44,91647;-0,625845;8,600883;1006,168
10,71780491;-0,5290537;-0,9737096;4,415542;-0,8642915;0,4251765;-0,1304769;44,91647;-0,625845;8,600883;1006,168
10,73806763;-0,2814856;-0,7362441;6,127745;-0,847187;0,5534032;-0,1540802;44,90664;-0,6274593;8,221274;1006,169
10,75832319;1,389599;-1,329908;4,660142;-0,8164413;0,5969883;-0,1400349;44,90664;-0,6274593;8,221274;1006,169
10,77857924;2,256087;-1,092443;2,51989;-0,8091244;0,5940901;-0,1377286;45,27394;-0,9384749;8,215652;1006,173
10,79883528;1,142031;0,332351;2,275289;-0,8252421;0,504537;-0,1499342;45,27394;-0,9384749;8,215652;1006,173
10,81909037;-1,209866;1,400946;3,13139;-0,8372994;0,4962653;-0,1826551;45,27394;-0,9384749;8,215652;1006,175
10,83934641;-3,066627;2,232076;4,170942;-0,82639;0,5247992;-0,2022736;44,53919;-0,6232376;8,229126;1006,175
10,85960245;-1,95257;1,044748;3,19254;-0,7936041;0,5853343;-0,1794213;44,53919;-0,6232376;8,229126;1006,175
10,87985849;-0,4052696;0,1542518;1,663788;-0,7873421;0,5722638;-0,1844254;44,90649;-0,934253;8,223503;1006,175
10,90011406;0,7087868;-0,4987786;0,1961859;-0,79031;0,54225;-0,1904487;44,90649;-0,934253;8,223503;1006,173
10,9178381;0,3374346;0,03551903;0,5019364;-0,8186125;0,4996829;-0,1640253;44,90649;-0,934253;8,223503;1006,173
10,93808937;-0,4671616;0,7479158;1,419188;-0,8338329;0,5001927;-0,1378332;44,90649;-0,934253;8,223503;1006,173
10,95834541;-1,147974;1,519679;2,214139;-0,8292394;0,5519556;-0,1562111;44,90649;-0,934253;8,223503;1006,173
10,97860146;-0,7766218;1,104114;1,235738;-0,8071074;0,6042143;-0,1704324;45,26229;-1,308511;7,775449;1006,17
10,9988575;0,2755426;0,332351;-1,699467;-0,7858165;0,6477737;-0,1746021;45,26229;-1,308511;7,775449;1006,17
11,01911306;0,8944628;0,2136182;-4,634672;-0,7706457;0,6158471;-0,1673395;45,26229;-1,308511;7,775449;1006,17
11,03936863;0,3993267;-0,261313;-7,264125;-0,8007511;0,6075612;-0,2061352;44,90593;-2,038711;8,231526;1006,17
11,0596242;-1,395542;-0,3800458;-8,915178;-0,7980534;0,5804374;-0,2252055;44,90593;-2,038711;8,231526;1006,171
11,07988024;-2,200138;-0,261313;-9,771279;-0,8139437;0,5253177;-0,1778203;44,90612;-1,670558;8,228852;1006,171
11,10013628;-2,323922;-0,1425802;-10,01588;-0,8123183;0,5330787;-0,1637903;44,90612;-1,670558;8,228852;1006,169
11,11786032;-1,705002;-0,3800458;-10,44393;-0,8295724;0,5359988;-0,1447845;44,90612;-1,670558;8,228852;1006,169
11,13811207;0,08986653;-0,854977;-10,74968;-0,8303168;0,4996738;-0,1677572;45,26263;-0,6335647;7,770546;1006,166
11,15836763;1,513383;-1,151809;-9,037478;-0,8569571;0,411537;-0,2058649;45,26263;-0,6335647;7,770546;1006,166
11,1786232;0,3374346;-0,9737096;-4,940422;-0,8908691;0,3520496;-0,162666;45,64174;-0,2677505;8,202896;1006,164
11,19887924;-1,147974;-0,7956105;0,3184861;-0,9058068;0,3471681;-0,192434;45,64174;-0,2677505;8,202896;1006,164
11,21913528;-1,33365;-0,6175113;5,271644;-0,8842613;0,363649;-0,1775722;45,64174;-0,2677505;8,202896;1006,167
11,23939133;-0,1577016;-0,6768777;8,879498;-0,8744598;0,4227558;-0,1279813;44,53957;0,1130674;8,223777;1006,167
11,25964642;1,018247;-0,4987786;11,01975;-0,842594;0,4914758;-0,1397471;44,53957;0,1130674;8,223777;1006,167
11,27990246;1,327707;0,09488543;11,50895;-0,8182219;0,5248888;-0,1310278;45,65156;-0,2661362;8,582504;1006,167
11,3001585;1,699059;1,638412;10,89745;-0,76533;0,5520549;-0,0947127;45,65156;-0,2661362;8,582504;1006,163
11,31788206;2,194195;2,707007;9,1241;-0,769086;0,5994498;-0,1207532;45,65156;-0,2661362;8,582504;1006,163
11,33813429;3,060683;2,82574;6,861546;-0,8198229;0,6308205;-0,1758412;44,89536;-0,2611907;7,775723;1006,16
11,35839033;4,731768;0,8072822;3,13139;-0,8236169;0,7120909;-0,2030211;44,89536;-0,2611907;7,775723;1006,16
11,37864542;5,288796;-1,62674;-1,271416;-0,7721228;0,6626489;-0,2840196;44,9063;-1,302406;8,226177;1006,164
11,39890146;3,24636;-2,101671;-4,145471;-0,7574342;0,5847434;-0,2790952;44,9063;-1,302406;8,226177;1006,164
11,41915703;0,2755426;-2,042305;-5,490773;-0,7527694;0,4880233;-0,2216999;44,9063;-1,302406;8,226177;1006,162
11,43941307;-3,995007;-0,261313;-4,145471;-0,8075268;0,4624113;-0,1731547;45,28339;-1,673166;8,600608;1006,162
11,45966911;-4,613927;0,1542518;-3,228219;-0,8495574;0,5359843;-0,1503567;45,28339;-1,673166;8,600608;1006,161
11,4799242;-3,190411;-0,02384736;-3,411669;-0,8447724;0,5423185;-0,1166123;44,90649;-0,934253;8,223503;1006,161
11,50018025;-0,4052696;-0,5581449;-3,83972;-0,8321515;0,5544223;-0,1166365;44,90649;-0,934253;8,223503;1006,159
11,51790428;0,9563549;-0,3800458;-4,206621;-0,8256052;0,5190686;-0,1391957;44,90649;-0,934253;8,223503;1006,159
11,53815603;0,2755426;0,629183;-3,167069;-0,8294188;0,4580913;-0,1368143;45,65122;-0,9410822;8,587408;1006,157
11,55841208;-1,395542;2,528908;-0,8433657;-0,8351759;0,4532086;-0,1705353;45,65122;-0,9410822;8,587408;1006,157
11,57866812;-3,066627;2,766373;0,3184861;-0,814767;0,5514199;-0,2036021;45,2741;-0,6316812;8,213423;1006,157
11,59892321;-2,880951;1,638412;-1,454867;-0,8003905;0,6273926;-0,2151173;45,2741;-0,6316812;8,213423;1006,157
11,61917925;-0,9622978;0,03551903;-4,390071;-0,791343;0,5858028;-0,1929362;44,8852;-0,9377508;7,401018;1006,16
11,63943529;-0,1577016;-0,7362441;-6,102274;-0,8135076;0,5383807;-0,1810807;44,8852;-0,9377508;7,401018;1006,16
11,65969133;-0,5909457;-0,1425802;-5,307323;-0,8439526;0,4706257;-0,172213;44,8852;-0,9377508;7,401018;1006,158
11,6799469;-2,385814;0,4510838;-3,65627;-0,8532226;0,4807819;-0,1749149;44,90649;-0,934253;8,223503;1006,158
11,70020247;-2,880951;0,9853814;-2,739018;-0,8309323;0,5074046;-0,1778022;44,90649;-0,934253;8,223503;1006,162
11,7179265;-2,014462;0,332351;-3,167069;-0,805185;0,5480701;-0,1752976;44,90649;-0,934253;8,223503;1006,162
11,73817825;0,2755426;-1,092443;-4,940422;-0,8038869;0,5848383;-0,1860646;44,90649;-0,934253;8,223503;1006,164
11,7584343;1,142031;-1,745473;-6,774925;-0,8248991;0,564054;-0,1580756;44,90649;-0,934253;8,223503;1006,164
11,77869034;1,637167;-0,9143433;-7,325275;-0,8354338;0,5070016;-0,1098006;45,64174;-0,2677505;8,202896;1006,165
11,7989459;0,7706788;0,2136182;-6,713775;-0,8485683;0,481827;-0,1127807;45,64174;-0,2677505;8,202896;1006,165
11,81920147;-0,09580953;1,460313;-5,735373;-0,8572951;0,4798417;-0,1507818;45,64192;0,1004021;8,200222;1006,167
11,83945704;0,02797451;1,400946;-5,001572;-0,8456209;0,4948039;-0,1878819;45,64192;0,1004021;8,200222;1006,167
11,85971308;0,7087868;0,7479158;-4,634672;-0,8332258;0,5054334;-0,2062319;45,64192;0,1004021;8,200222;1006,169
11,87996912;1,884735;-0,4394122;-4,879272;-0,8279249;0,4952676;-0,2102356;45,27428;-0,2635288;8,210748;1006,169
11,90022516;1,946627;-0,9737096;-4,634672;-0,8443614;0,4860731;-0,204361;45,27428;-0,2635288;8,210748;1006,175
11,9179492;1,327707;-1,211175;-3,90087;-0,8464037;0,448359;-0,1752799;45,64192;0,1004021;8,200222;1006,175
11,93820047;0,5850027;-0,6175113;-2,433268;-0,8525297;0,453215;-0,1597482;45,64192;0,1004021;8,200222;1006,175
11,95845604;-0,4671616;0,09488543;-1,210266;-0,8447051;0,4735508;-0,1543457;45,64192;0,1004021;8,200222;1006,175
11,97871208;-0,1577016;0,4510838;-0,4764651;-0,8379574;0,480808;-0,1582073;45,26319;0,4708928;7,762522;1006,176
11,99896812;0,3993267;0,4510838;-0,2318648;-0,8469014;0,4986927;-0,1733741;45,26319;0,4708928;7,762522;1006,176
12,01922417;0,2755426;0,1542518;-0,2930149;-0,8464254;0,5049838;-0,1738043;45,27485;0,8409288;8,202724;1006,176
12,03947973;0,08986653;0,1542518;-0,04841447;-0,8424619;0,4841813;-0,1687325;45,27485;0,8409288;8,202724;1006,176
12,0597353;-0,1577016;0,2729846;0,257336;-0,8306261;0,4981914;-0,1928297;45,27485;0,8409288;8,202724;1006,183
12,07999134;-0,7147297;0,2729846;0,3184861;-0,8242308;0,5020737;-0,1861148;45,26338;0,8390453;7,759848;1006,183
12,0977149;-0,6528377;-0,08321376;0,07388572;-0,8272309;0,5059361;-0,1927957;45,26338;0,8390453;7,759848;1006,184
12,11797094;-0,3433776;-0,4987786;-0,2318648;-0,84211;0,498688;-0,1787266;44,89555;0,1069621;7,773048;1006,184
12,13822317;-0,2814856;-0,5581449;0,07388572;-0,8440603;0,4812628;-0,1803092;44,89555;0,1069621;7,773048;1006,184
12,15847874;-0,03391751;-0,6175113;0,5630865;-0,853138;0,4788543;-0,1681857;44,89555;0,1069621;7,773048;1006,184
12,1787343;0,08986653;-0,4987786;1,663788;-0,8538605;0,4716185;-0,1484826;44,9072;0,4769981;8,21325;1006,184
12,19899035;-0,03391751;-0,02384736;2,82564;-0,8552207;0,4692076;-0,1407785;44,9072;0,4769981;8,21325;1006,184
12,21924591;-0,5290537;0,3917174;3,987492;-0,8530065;0,4783832;-0,157588;45,27466;0,4727763;8,205399;1006,184
12,23958111;-0,4052696;0,6885494;4,476692;-0,8343064;0,5040181;-0,1758692;45,27466;0,4727763;8,205399;1006,184
12,25983667;-0,5290537;0,5698166;4,109792;-0,8266096;0,5286972;-0,1805475;45,27466;0,4727763;8,205399;1006,184
12,28009272;0,02797451;0,2729846;3,253691;-0,8223745;0,5369133;-0,1911214;45,64192;0,1004021;8,200222;1006,184
12,29781628;0,08986653;-0,261313;2,64219;-0,8247301;0,5248197;-0,185904;45,64192;0,1004021;8,200222;1006,188
12,31807232;0,3993267;-0,6175113;2,030689;-0,8251453;0,5267625;-0,1800985;44,88573;0,1053478;7,39344;1006,188
12,33832455;0,3993267;-0,4394122;1,174587;-0,8211074;0,5514625;-0,166423;44,88573;0,1053478;7,39344;1006,187
12,35858011;0,2136506;-0,3206794;0,1961859;-0,8185338;0,5379258;-0,1554872;44,88573;0,1053478;7,39344;1006,187
12,37883568;-0,4052696;0,2729846;-0,2930149;-0,8273821;0,5253285;-0,1646647;45,27428;-0,2635288;8,210748;1006,185
12,39909172;-0,5290537;0,5104502;-0,415315;-0,8356092;0,5054846;-0,163311;45,27428;-0,2635288;8,210748;1006,185
12,41934729;-0,4052696;0,629183;-0,4764651;-0,8353343;0,5190158;-0,1795786;45,27428;-0,2635288;8,210748;1006,185
12,43960333;-0,1577016;0,2729846;-0,7210655;-0,8343896;0,5136897;-0,1820466;45,27428;-0,2635288;8,210748;1006,185
12,45985937;0,7706788;-0,08321376;-0,7822156;-0,8396993;0,508367;-0,1796286;45,27428;-0,2635288;8,210748;1006,183
12,48011541;1,142031;-0,2019466;-1,026816;-0,8322563;0,5141932;-0,1666416;45,28429;0,1062381;8,587682;1006,183
12,4978385;1,080139;-0,4394122;-0,9656659;-0,8284318;0,5064448;-0,1720537;45,28429;0,1062381;8,587682;1006,183
12,51809454;0,5850027;-0,08321376;-1,149116;-0,8271242;0,5170783;-0,1835388;45,26282;-0,2654123;7,767871;1006,188
12,53834629;-0,1577016;0,03551903;-1,516017;-0,816588;0,5170677;-0,1956996;45,26282;-0,2654123;7,767871;1006,188
12,55860233;-0,8385138;0,09488543;-2,005217;-0,8217671;0,5228897;-0,1820971;45,26282;-0,2654123;7,767871;1006,188
12,57885838;-0,3433776;0,03551903;-2,555568;-0,8214911;0,5301767;-0,1593817;44,90702;0,1088456;8,215925;1006,188
12,59911442;-0,03391751;0,2136182;-3,228219;-0,83395;0,5268007;-0,1457851;44,90702;0,1088456;8,215925;1006,188
12,61936951;0,6468948;0,2729846;-3,53397;-0,8472416;0,4948349;-0,1618381;45,27485;0,8409288;8,202724;1006,188
12,63962555;0,2755426;0,2136182;-3,105919;-0,8397236;0,489005;-0,182695;45,27485;0,8409288;8,202724;1006,186
12,65988112;-0,5290537;0,3917174;-2,739018;-0,8275582;0,4904638;-0,1808828;45,27485;0,8409288;8,202724;1006,186
12,68013716;-1,02419;0,3917174;-3,044769;-0,8288224;0,52141;-0,2027604;45,27466;0,4727763;8,205399;1006,188
12,6978612;-0,7147297;0,03551903;-3,71742;-0,8261949;0,5277224;-0,1863443;45,27466;0,4727763;8,205399;1006,188
12,71811724;0,1517586;-0,5581449;-4,451221;-0,8342071;0,5175796;-0,1670723;45,6423;0,836707;8,194873;1006,188
12,73836851;0,3374346;-0,6175113;-4,573522;-0,843892;0,4890233;-0,1662638;45,6423;0,836707;8,194873;1006,188
12,75862455;0,02797451;-0,08321376;-4,02317;-0,8527327;0,4735227;-0,1749857;45,6423;0,836707;8,194873;1006,185
12,77888012;-0,4052696;0,332351;-3,167069;-0,847181;0,4730612;-0,1581797;45,28448;0,4743906;8,585007;1006,185
12,79913616;-0,2195936;0,4510838;-2,800169;-0,8456223;0,4827516;-0,1494332;45,28448;0,4743906;8,585007;1006,182
12,8193922;0,08986653;0,5104502;-2,372118;-0,8445421;0,4948148;-0,1792178;45,96961;0,4685342;9,013489;1006,182
12,83964825;0,8944628;-0,02384736;-2,555568;-0,8489501;0,4962615;-0,1820499;45,96961;0,4685342;9,013489;1006,18
12,85990334;0,6468948;0,03551903;-2,372118;-0,849476;0,4836736;-0,1860137;45,27485;0,8409288;8,202724;1006,18
12,88015938;-0,03391751;-0,1425802;-1,638317;-0,8458295;0,4701474;-0,1668957;45,27485;0,8409288;8,202724;1006,181
12,89788342;-0,1577016;0,3917174;-1,149116;-0,8417034;0,4812567;-0,1861178;45,27485;0,8409288;8,202724;1006,181
12,91813898;-0,2814856;0,09488543;-0,7822156;-0,8393708;0,5020599;-0,1927022;44,89608;1,150061;7,765471;1006,179
12,93839121;0,2136506;-0,1425802;-1,393717;-0,843506;0,4861097;-0,1744877;44,89608;1,150061;7,765471;1006,179
12,95864725;0,3993267;-0,261313;-0,8433657;-0,8521032;0,472569;-0,1634337;45,27485;0,8409288;8,202724;1006,174
12,97890234;-0,09580953;-0,08321376;0,01273562;-0,8515834;0,4653127;-0,1610949;45,27485;0,8409288;8,202724;1006,174
12,99915838;-0,5909457;0,2136182;0,4407863;-0,8444067;0,4875683;-0,1686813;45,27485;0,8409288;8,202724;1006,171
13,01941443;-0,8385138;0,4510838;0,4407863;-0,836144;0,4977358;-0,167713;44,90755;1,151944;8,208347;1006,171
13,03966999;-0,2814856;0,03551903;0,3184861;-0,8411683;0,4783578;-0,182294;44,90755;1,151944;8,208347;1006,171
13,05992603;0,2136506;-0,3800458;0,6242366;-0,8498943;0,4807761;-0,1807338;45,25371;1,144225;7,378011;1006,171
13,08018208;0,3374346;-0,4394122;1,235738;-0,8494747;0,471574;-0,186605;45,25371;1,144225;7,378011;1006,168
13,09790611;0,2136506;-0,3206794;1,480338;-0,8549423;0,486611;-0,1565292;45,25371;1,144225;7,378011;1006,168
13,1181612;0,2755426;-0,2019466;1,847239;-0,8403186;0,4880737;-0,1523331;45,26338;0,8390453;7,759848;1006,166
13,13841295;0,2755426;0,2136182;1,786088;-0,8419029;0,4914486;-0,1624072;45,26338;0,8390453;7,759848;1006,166
13,158669;0,1517586;0,3917174;2,152989;-0,8478662;0,4875612;-0,1734645;45,6423;0,836707;8,194873;1006,163
13,17892504;0,08986653;0,09488543;2,030689;-0,8411312;0,4962692;-0,1782768;45,6423;0,836707;8,194873;1006,163
13,19918108;-0,03391751;0,332351;2,336439;-0,8400255;0,4909588;-0,1677332;45,6423;0,836707;8,194873;1006,161
13,21943712;-0,03391751;-0,02384736;2,458739;-0,8450599;0,4885196;-0,182161;45,26338;0,8390453;7,759848;1006,161
13,23970699;0,02797451;-0,08321376;2,458739;-0,8410301;0,4967631;-0,1700799;45,26338;0,8390453;7,759848;1006,158
13,25996256;0,2136506;-0,2019466;2,397589;-0,834356;0,507401;-0,1796939;45,27466;0,4727763;8,205399;1006,158
13,2802186;0,2136506;-0,1425802;2,214139;-0,8270817;0,5059507;-0,1807479;45,27466;0,4727763;8,205399;1006,156
13,29794264;0,08986653;-0,261313;1,969539;-0,835255;0,5059559;-0,1739138;45,27466;0,4727763;8,205399;1006,156
13,31819868;-0,03391751;-0,3206794;1,969539;-0,8410557;0,4996645;-0,1719813;45,27485;0,8409288;8,202724;1006,154
13,33845043;0,08986653;-0,08321376;1,969539;-0,8443965;0,5006371;-0,1671175;45,27485;0,8409288;8,202724;1006,154
13,358706;0,08986653;-0,1425802;1,969539;-0,8379013;0,4967853;-0,152762;45,64245;1,143501;8,192644;1006,154
13,37896156;0,2755426;0,03551903;1,908389;-0,8359862;0,513239;-0,1540795;45,64245;1,143501;8,192644;1006,154
13,39921761;-0,03391751;0,09488543;1,786088;-0,8339506;0,5020695;-0,1864939;45,64245;1,143501;8,192644;1006,157
13,41947365;0,08986653;0,2136182;1,847239;-0,8377553;0,5064319;-0,1796667;44,89574;0,4751146;7,770373;1006,157
13,43972969;0,1517586;0,03551903;1,541488;-0,8352715;0,5136981;-0,1748076;44,89574;0,4751146;7,770373;1006,155
13,45998526;0,2755426;-0,3206794;1,296888;-0,8314374;0,5199864;-0,1786472;45,263;0,1027403;7,765197;1006,155
13,48024082;0,3993267;-0,261313;1,052287;-0,8270617;0,5224084;-0,1781896;45,263;0,1027403;7,765197;1006,153
13,49796486;-0,09580953;-0,08321376;0,6242366;-0,8290246;0,5161138;-0,1801536;45,263;0,1027403;7,765197;1006,153
13,51822043;-0,2814856;-0,02384736;0,5630865;-0,8312761;0,5093545;-0,1662137;45,27466;0,4727763;8,205399;1006,158
13,53847265;-0,2195936;0,1542518;0,3796362;-0,8332171;0,50645;-0,1662194;45,27466;0,4727763;8,205399;1006,158
13,5587287;0,02797451;0,09488543;0,3184861;-0,8338341;0,5166007;-0,1762425;45,27447;0,1046238;8,208074;1006,154
13,57898426;0,1517586;-0,02384736;0,01273562;-0,8308645;0,5137033;-0,1719624;45,27447;0,1046238;8,208074;1006,154
13,5992403;0,08986653;0,09488543;-0,1095646;-0,8324013;0,507403;-0,1787506;45,27447;0,1046238;8,208074;1006,152
13,61949539;0,08986653;0,2729846;0,07388572;-0,8328955;0,5015941;-0,1797618;44,89555;0,1069621;7,773048;1006,152
13,63975143;0,02797451;0,03551903;0,01273562;-0,8377287;0,5117584;-0,177209;44,89555;0,1069621;7,773048;1006,155
13,66000748;-0,03391751;-0,1425802;-0,1707147;-0,8294296;0,5107976;-0,1739317;44,88573;0,1053478;7,39344;1006,155
13,67773151;0,4612187;-0,2019466;-0,2318648;-0,826481;0,5030583;-0,171623;44,88573;0,1053478;7,39344;1006,153
13,69798756;-0,03391751;-0,08321376;-0,2930149;-0,8308631;0,5112835;-0,1719843;44,88573;0,1053478;7,39344;1006,153
13,71824312;-0,2195936;-0,02384736;-0,5987653;-0,8332995;0,5146697;-0,1724099;45,65156;-0,2661362;8,582504;1006,152
13,73849535;-0,2195936;0,1542518;-0,5987653;-0,8355832;0,5117791;-0,1608446;45,65156;-0,2661362;8,582504;1006,152
13,75875044;-0,09580953;0,09488543;-0,7822156;-0,8381403;0,5175734;-0,1708865;44,5281;0,1111839;7,7809;1006,15
13,77900648;-0,2195936;0,2136182;-0,8433657;-0,8358098;0,5117568;-0,1791572;44,5281;0,1111839;7,7809;1006,15
13,79926252;-0,03391751;0,03551903;-1,026816;-0,8342246;0,5069301;-0,1690962;44,5281;0,1111839;7,7809;1006,151
13,81951857;0,1517586;-0,02384736;-1,087966;-0,8362952;0,5112727;-0,1791564;45,64192;0,1004021;8,200222;1006,151
13,83977413;0,1517586;-0,2019466;-1,026816;-0,8353251;0,503529;-0,1797186;45,64192;0,1004021;8,200222;1006,151
13,86003017;0,2136506;0,03551903;-0,9045157;-0,8323022;0,5011209;-0,1710969;45,27428;-0,2635288;8,210748;1006,151
13,87775326;-0,09580953;0,09488543;-1,087966;-0,8298171;0,5059673;-0,1662598;45,27428;-0,2635288;8,210748;1006,152
13,8980093;0,1517586;0,1542518;-1,026816;-0,8400708;0,5069261;-0,1704803;45,27428;-0,2635288;8,210748;1006,152
13,91826534;0,2755426;0,03551903;-1,210266;-0,8387361;0,5020747;-0,1806596;45,26338;0,8390453;7,759848;1006,152
13,93851709;-0,09580953;0,1542518;-0,9045157;-0,8324283;0,5025604;-0,1812039;45,26338;0,8390453;7,759848;1006,152
13,95877314;-0,2195936;0,09488543;-1,026816;-0,836237;0,5035345;-0,1748892;45,64192;0,1004021;8,200222;1006,154
13,97902918;-0,2195936;0,1542518;-1,393717;-0,8329564;0,5136878;-0,1839896;45,64192;0,1004021;8,200222;1006,154
13,99928522;0,02797451;0,03551903;-1,577167;-0,8376554;0,5088617;-0,1714523;45,263;0,1027403;7,765197;1006,156
14,01954031;0,3993267;-0,08321376;-1,577167;-0,836096;0,4972565;-0,1638621;45,263;0,1027403;7,765197;1006,156
14,03979635;0,2755426;-0,02384736;-1,393717;-0,8391049;0,4861143;-0,1721244;45,263;0,1027403;7,765197;1006,162
14,0600524;-0,1577016;0,1542518;-1,087966;-0,8362967;0,4938488;-0,1802777;45,27466;0,4727763;8,205399;1006,162
14,07777596;-0,4671616;0,2729846;-0,7210655;-0,8392326;0,5001375;-0,1816358;45,27466;0,4727763;8,205399;1006,162
14,098032;-0,09580953;0,09488543;-0,5987653;-0,8333628;0,5006278;-0,1783197;45,27447;0,1046238;8,208074;1006,162
14,11828804;0,08986653;-0,08321376;-0,7210655;-0,840146;0,5030468;-0,1767801;45,27447;0,1046238;8,208074;1006,162
14,13853979;0,08986653;-0,1425802;-0,8433657;-0,8416255;0,5006241;-0,1787142;45,27447;0,1046238;8,208074;1006,162
14,15879536;-0,03391751;-0,08321376;-0,7210655;-0,8414928;0,4982172;-0,168134;45,27485;0,8409288;8,202724;1006,162
14,1790514;0,2136506;-0,08321376;-0,5376152;-0,8409554;0,4914466;-0,1643451;45,27485;0,8409288;8,202724;1006,162
14,19930697;0,08986653;-0,08321376;-0,2930149;-0,8308337;0,5020905;-0,1701397;45,27466;0,4727763;8,205399;1006,166
14,21956301;-0,2195936;-0,08321376;-0,5987653;-0,8358206;0,5098197;-0,1801385;45,27466;0,4727763;8,205399;1006,166
14,23981905;-0,03391751;-0,02384736;-0,7822156;-0,8331958;0,5006441;-0,1648262;45,27466;0,4727763;8,205399;1006,167
14,26007509;-0,03391751;-0,02384736;-0,7822156;-0,8386298;0,4938573;-0,1725414;45,27447;0,1046238;8,208074;1006,167
14,27779865;-0,2195936;0,2136182;-0,5376152;-0,8347306;0,4909561;-0,171645;45,27447;0,1046238;8,208074;1006,167
14,2980547;-0,03391751;0,09488543;-0,354165;-0,8396057;0,4914365;-0,1730349;45,26319;0,4708928;7,762522;1006,167
14,31831026;0,02797451;0,09488543;-0,2318648;-0,8420431;0,5064385;-0,1728736;45,26319;0,4708928;7,762522;1006,17
14,33856201;0,08986653;0,09488543;-0,2318648;-0,8376402;0,4933755;-0,1711104;45,26319;0,4708928;7,762522;1006,17
14,35881805;0,1517586;-0,08321376;0,01273562;-0,834363;0,4991726;-0,1807321;45,28467;0,8425431;8,582333;1006,17
14,3790741;0,02797451;0,1542518;0,07388572;-0,8406044;0,4972414;-0,1748998;45,28467;0,8425431;8,582333;1006,17
14,39932966;-0,03391751;-0,02384736;0,1350358;-0,8386282;0,5011174;-0,1719939;45,27428;-0,2635288;8,210748;1006,168
14,41958571;0,08986653;-0,02384736;0,1961859;-0,8469355;0,5059492;-0,1757181;45,27428;-0,2635288;8,210748;1006,168
14,43984175;-0,1577016;0,03551903;0,257336;-0,8425089;0,5030523;-0,1714534;45,27428;-0,2635288;8,210748;1006,168
14,46009684;-0,1577016;0,1542518;0,5630865;-0,8391052;0,4967621;-0,1715462;45,27447;0,1046238;8,208074;1006,168
14,47782087;-0,2814856;0,1542518;0,3796362;-0,83147;0,5044955;-0,1821605;45,27447;0,1046238;8,208074;1006,171
14,49807692;0,1517586;0,03551903;0,3184861;-0,829481;0,5069208;-0,1783039;45,275;1,147722;8,200496;1006,171
14,51833296;0,3374346;-0,261313;0,01273562;-0,8366448;0,5030581;-0,1686236;45,275;1,147722;8,200496;1006,171
14,53858471;0,2755426;-0,3206794;0,07388572;-0,8419657;0,4967663;-0,1671782;45,275;1,147722;8,200496;1006,171
14,55884075;0,3374346;-0,08321376;0,257336;-0,84206;0,4846572;-0,1754801;45,64192;0,1004021;8,200222;1006,171
14,57909679;-0,09580953;0,1542518;0,929987;-0,8380802;0,4866039;-0,1677931;45,64192;0,1004021;8,200222;1006,171
14,59935188;-0,2195936;0,2136182;0,8076869;-0,8362029;0,5064419;-0,1719715;45,6423;0,836707;8,194873;1006,171
14,61960793;0,08986653;0,03551903;0,8076869;-0,8339317;0,5102991;-0,1844919;45,6423;0,836707;8,194873;1006,171
14,63986397;0,2755426;-0,08321376;0,5019364;-0,8377281;0,5107905;-0,1772177;45,6423;0,836707;8,194873;1006,174
14,66011953;0,1517586;-0,3206794;0,4407863;-0,8304262;0,503051;-0,176401;44,89592;0,8432671;7,767699;1006,174
14,67784357;0,3993267;-0,02384736;0,5019364;-0,8395098;0,5006418;-0,1647593;44,89592;0,8432671;7,767699;1006,174
14,69809961;-0,2195936;0,2136182;0,8076869;-0,837106;0,5020923;-0,1666996;45,27485;0,8409288;8,202724;1006,175
14,71835566;0,08986653;0,2136182;0,7465367;-0,8357688;0,503049;-0,1763444;45,27485;0,8409288;8,202724;1006,175
14,73860741;0,08986653;0,03551903;0,5630865;-0,8352928;0,5093401;-0,1767747;45,27485;0,8409288;8,202724;1006,174
14,7588625;0,4612187;0,03551903;0,5630865;-0,8279415;0,5088654;-0,1715551;45,64211;0,4685545;8,197547;1006,174
14,77911854;0,3374346;-0,02384736;0,5630865;-0,8371592;0,5011191;-0,1710455;45,64211;0,4685545;8,197547;1006,172
14,79937458;-0,1577016;0,1542518;0,3796362;-0,8337994;0,5083762;-0,1739073;45,27466;0,4727763;8,205399;1006,172
14,81963062;-0,09580953;0,2136182;0,3184861;-0,8351274;0,5020965;-0,1638286;45,27466;0,4727763;8,205399;1006,176
14,83988667;0,02797451;0,1542518;0,3184861;-0,8353339;0,4982043;-0,1807305;45,27466;0,4727763;8,205399;1006,176
14,86014223;0,02797451;0,09488543;0,4407863;-0,8290027;0,5093401;-0,1787691;44,9072;0,4769981;8,21325;1006,176
14,87786627;-0,09580953;-0,08321376;0,1961859;-0,8231251;0,5267708;-0,1738542;44,9072;0,4769981;8,21325;1006,176
14,89812136;0,1517586;-0,08321376;-0,354165;-0,8269401;0,5185485;-0,1685864;45,27466;0,4727763;8,205399;1006,176
14,9183774;0,02797451;-0,02384736;-0,5987653;-0,839131;0,5098273;-0,1728739;45,27466;0,4727763;8,205399;1006,176
14,93862963;0,02797451;-0,2019466;-0,4764651;-0,8395857;0,5078942;-0,1704767;45,27466;0,4727763;8,205399;1006,176
14,95888519;0,02797451;0,09488543;-0,415315;-0,8294091;0,49628;-0,1730991;45,25318;0,101126;7,385589;1006,176
14,97914124;0,1517586;0,09488543;-0,415315;-0,8303209;0,5064493;-0,167696;45,25318;0,101126;7,385589;1006,18
14,99939728;0,3374346;0,09488543;-0,4764651;-0,832822;0,4982134;-0,1740095;45,27447;0,1046238;8,208074;1006,18
15,01965332;-0,03391751;0,1542518;-0,1707147;-0,8468646;0,4870805;-0,1710696;45,27447;0,1046238;8,208074;1006,18
15,03990936;0,02797451;0,09488543;0,257336;-0,8420437;0,477399;-0,1745818;44,91684;0,1104599;8,595533;1006,18
15,06016445;0,3993267;0,09488543;0,9911371;-0,8376632;0,4919212;-0,1730511;44,91684;0,1104599;8,595533;1006,179
15,07788849;0,3374346;0,03551903;1,052287;-0,8377744;0,508366;-0,1810949;44,91684;0,1104599;8,595533;1006,179
15,09814405;0,08986653;0,03551903;0,9911371;-0,8337417;0,5117699;-0,1690576;46,0192;0,09779477;8,571979;1006,181
15,1184001;0,02797451;0,4510838;1,235738;-0,8360214;0,5021038;-0,1575535;46,0192;0,09779477;8,571979;1006,181
15,13865233;0,02797451;0,332351;1,419188;-0,8385825;0,5045098;-0,168108;46,0192;0,09779477;8,571979;1006,179
15,15890789;-0,2195936;0,5104502;1,663788;-0,8376264;0,5103166;-0,1690296;45,96942;0,1003819;9,016164;1006,179
15,17916393;-0,2195936;0,2729846;1,296888;-0,8287311;0,5383587;-0,1944149;45,96942;0,1003819;9,016164;1006,178
15,19941998;-0,03391751;0,09488543;0,4407863;-0,8157615;0,5456569;-0,166532;45,27447;0,1046238;8,208074;1006,178
15,21967506;0,3993267;-0,3800458;-0,4764651;-0,8269491;0,5335513;-0,1684508;45,27447;0,1046238;8,208074;1006,176
15,23993111;0,08986653;-0,1425802;-1,149116;-0,8386104;0,5214468;-0,1694006;45,263;0,1027403;7,765197;1006,176
15,26018715;-0,5290537;0,5698166;-0,7822156;-0,8341261;0,4817722;-0,1625769;45,263;0,1027403;7,765197;1006,178
15,27791119;-0,8385138;0,6885494;-0,415315;-0,8333827;0,5141776;-0,179161;45,263;0,1027403;7,765197;1006,178
15,29816675;-0,7766218;0,1542518;-1,149116;-0,8145745;0,5586987;-0,1876334;44,91684;0,1104599;8,595533;1006,177
15,31842279;-0,2195936;-0,1425802;-2,922469;-0,8067909;0,5475709;-0,1873343;44,91684;0,1104599;8,595533;1006,177
15,33867884;0,3374346;-0,4987786;-3,90087;-0,8328486;0,5330581;-0,1741764;45,27428;-0,2635288;8,210748;1006,177
15,35893059;-0,03391751;-0,5581449;-4,573522;-0,8330158;0,5233619;-0,1882394;45,27428;-0,2635288;8,210748;1006,177
15,37918615;-0,7147297;-0,4394122;-4,573522;-0,8369036;0,5272321;-0,1881633;45,27428;-0,2635288;8,210748;1006,181
15,3994422;-1,02419;-0,3800458;-5,185022;-0,8311323;0,5084006;-0,1546566;45,64192;0,1004021;8,200222;1006,181
15,41969776;-0,5290537;-0,261313;-5,062722;-0,8373442;0,4871127;-0,1475536;45,64192;0,1004021;8,200222;1006,181
15,4399538;-0,09580953;-0,08321376;-4,512372;-0,8567651;0,4856541;-0,1468792;45,64192;0,1004021;8,200222;1006,181
15,46020985;0,08986653;0,332351;-3,77857;-0,8584856;0,467236;-0,1691979;45,64192;0,1004021;8,200222;1006,183
15,47793388;0,7087868;0,2136182;-2,739018;-0,8560302;0,4619157;-0,1673441;45,64192;0,1004021;8,200222;1006,183
15,49818945;1,018247;-0,1425802;-1,882917;-0,8433968;0,4730527;-0,1664133;45,24209;0,8355475;6,937363;1006,187
15,51844549;0,5231107;0,03551903;-0,9656659;-0,8524299;0,4802807;-0,1893869;45,24209;0,8355475;6,937363;1006,187
15,53870153;0,2755426;0,332351;-0,4764651;-0,8450654;0,4875511;-0,1826516;45,28429;0,1062381;8,587682;1006,187
15,55895281;-0,8385138;0,2729846;0,01273562;-0,8330532;0,4657632;-0,1945428;45,28429;0,1062381;8,587682;1006,187
15,57920885;-0,4671616;0,332351;0,5630865;-0,839671;0,4807823;-0,1789141;45,28429;0,1062381;8,587682;1006,188
15,59946489;-0,2814856;0,09488543;0,257336;-0,844408;0,5098317;-0,1675163;45,28429;0,1062381;8,587682;1006,188
15,61972046;-0,03391751;0,2729846;0,4407863;-0,8386866;0,4890118;-0,1774043;45,28429;0,1062381;8,587682;1006,191
15,6399765;0,3374346;-0,4394122;0,7465367;-0,8416424;0,4890066;-0,1807468;45,65193;0,4701688;8,577155;1006,191
15,65770054;0,8944628;-0,6175113;1,052287;-0,8580898;0,488039;-0,1752798;45,65193;0,4701688;8,577155;1006,191
15,67795658;0,02797451;-0,4987786;1,847239;-0,8589404;0,4653029;-0,1668007;45,65193;0,4701688;8,577155;1006,191
15,69821215;-0,8385138;0,09488543;2,76449;-0,8289618;0,4807886;-0,1770996;45,27466;0,4727763;8,205399;1006,191
15,71846771;-0,9622978;0,4510838;2,94794;-0,838993;0,4885452;-0,1629462;45,27466;0,4727763;8,205399;1006,191
15,73872376;0,2755426;0,2136182;2,82564;-0,8435814;0,5127218;-0,1790662;44,89574;0,4751146;7,770373;1006,195
15,75897551;1,080139;-0,2019466;2,64219;-0,8449368;0,5122473;-0,1708627;44,89574;0,4751146;7,770373;1006,195
15,77923155;0,8944628;-0,1425802;2,458739;-0,8493233;0,5078883;-0,1723015;44,89574;0,4751146;7,770373;1006,195
15,79948759;0,4612187;-0,3206794;2,397589;-0,8400618;0,4919232;-0,1706159;45,94867;1,139983;8,186101;1006,195
15,81974316;0,02797451;-0,2019466;3,13139;-0,8300102;0,4696489;-0,1839366;45,94867;1,139983;8,186101;1006,195
15,8399992;-0,5290537;0,1542518;4,170942;-0,8395409;0,4827311;-0,1682946;45,27466;0,4727763;8,205399;1006,195
15,85772324;-0,5290537;-0,02384736;4,048642;-0,832423;0,5238566;-0,1795657;45,27466;0,4727763;8,205399;1006,198
15,87797928;-0,1577016;-0,4394122;3,253691;-0,8248131;0,5340074;-0,1920858;45,27466;0,4727763;8,205399;1006,198
15,89823437;0,3374346;-0,7362441;2,76449;-0,8339654;0,4967441;-0,1879877;45,25337;0,4692785;7,382914;1006,199
15,91849041;1,203923;-0,7956105;3,314841;-0,8514498;0,4914614;-0,1488109;45,25337;0,4692785;7,382914;1006,199
15,93874645;0,5850027;-0,5581449;4,293242;-0,8481365;0,4866142;-0,1561193;45,25318;0,101126;7,385589;1006,199
15,9589982;-0,2195936;0,2729846;5,088193;-0,8429509;0,5098323;-0,1675317;45,25318;0,101126;7,385589;1006,199
15,97925425;-0,4671616;0,6885494;5,027043;-0,8258138;0,5388917;-0,1549194;45,25318;0,101126;7,385589;1006,198
15,99951029;0,1517586;0,332351;3,437141;-0,7973554;0,590186;-0,1682525;45,64192;0,1004021;8,200222;1006,198
16,01976585;0,1517586;0,1542518;0,8076869;-0,7958008;0,6109601;-0,1984454;45,64192;0,1004021;8,200222;1006,202
16,0400219;0,2755426;0,03551903;-1,454867;-0,8004474;0,5480602;-0,1849872;44,90702;0,1088456;8,215925;1006,202
16,05774593;0,2136506;0,03551903;-2,127518;-0,8279953;0,5190239;-0,1753185;44,90702;0,1088456;8,215925;1006,2
16,07800102;-0,4671616;-0,08321376;-2,127518;-0,8293673;0,5262915;-0,1680088;44,90702;0,1088456;8,215925;1006,2
16,09825707;-0,4052696;0,1542518;-2,800169;-0,8161865;0,5340469;-0,1622947;45,64174;-0,2677505;8,202896;1006,198
16,11851311;-0,8385138;0,3917174;-3,289369;-0,8109101;0,5350103;-0,1676435;45,64174;-0,2677505;8,202896;1006,198
16,13876915;-0,09580953;0,2136182;-3,83972;-0,8334953;0,5228783;-0,1877567;45,26282;-0,2654123;7,767871;1006,201
16,1590209;0,2755426;-0,3206794;-3,96202;-0,8367233;0,514666;-0,1743015;45,26282;-0,2654123;7,767871;1006,201
16,17927694;0,08986653;-0,261313;-4,084321;-0,8272801;0,5142068;-0,1570548;45,26282;-0,2654123;7,767871;1006,201
16,19953299;-0,2195936;0,332351;-4,084321;-0,833646;0,5112953;-0,1613514;45,2741;-0,6316812;8,213423;1006,201
16,21978855;-0,09580953;0,5104502;-3,77857;-0,8391899;0,4986897;-0,1782755;45,2741;-0,6316812;8,213423;1006,199
16,24004459;0,08986653;0,2729846;-3,96202;-0,8284952;0,5127303;-0,176816;45,27466;0,4727763;8,205399;1006,199
16,25776815;0,5850027;0,1542518;-4,267771;-0,8352315;0,5267698;-0,1708342;45,27466;0,4727763;8,205399;1006,199
16,27802372;-0,03391751;-0,02384736;-4,695822;-0,8295941;0,5165893;-0,1868908;45,27466;0,4727763;8,205399;1006,199
16,29827976;-0,4052696;0,09488543;-4,451221;-0,8309072;0,4851436;-0,1770396;45,263;0,1027403;7,765197;1006,197
16,31853581;-0,2195936;0,09488543;-4,145471;-0,840759;0,4865783;-0,1880077;45,263;0,1027403;7,765197;1006,197
16,33879185;-0,03391751;-0,261313;-3,53397;-0,8590217;0,4817506;-0,1724349;45,26319;0,4708928;7,762522;1006,2
16,3590436;-0,3433776;-0,08321376;-2,922469;-0,8457305;0,4841929;-0,1580945;45,26319;0,4708928;7,762522;1006,2
16,37929964;-0,5290537;0,2729846;-2,372118;-0,8350461;0,475485;-0,1587682;45,27485;0,8409288;8,202724;1006,198
16,39955568;-0,2195936;0,09488543;-1,944067;-0,8544181;0,4865674;-0,1926829;45,27485;0,8409288;8,202724;1006,198
16,41981125;0,02797451;-0,08321376;-1,516017;-0,8443861;0,4730506;-0,1678488;45,27485;0,8409288;8,202724;1006,198
16,44006682;-0,03391751;0,1542518;-0,5987653;-0,8452154;0,4750001;-0,1562551;45,63099;1,141617;7,749767;1006,198
16,45779085;-0,1577016;0,03551903;0,1350358;-0,8562596;0,4967405;-0,183896;45,63099;1,141617;7,749767;1006,195
16,47804642;-0,4052696;-0,261313;0,01273562;-0,8441536;0,4977094;-0,1869072;45,63046;0,09851861;7,757345;1006,195
16,49830246;0,3374346;-0,08321376;0,1961859;-0,8281431;0,4822735;-0,1501045;45,63046;0,09851861;7,757345;1006,199
16,5185585;0,4612187;-0,261313;0,3796362;-0,8463338;0,491441;-0,1671801;45,63046;0,09851861;7,757345;1006,199
16,53881455;0,08986653;0,09488543;0,8076869;-0,8531567;0,4803044;-0,1696183;45,28448;0,4743906;8,585007;1006,198
16,5590663;-0,4052696;0,09488543;1,480338;-0,8313383;0,4836968;-0,1727104;45,28448;0,4743906;8,585007;1006,198
16,57932234;0,2136506;-0,261313;1,480338;-0,8432382;0,5015762;-0,1912197;44,90739;0,8451505;8,210576;1006,196
16,59957838;0,4612187;-0,4394122;1,419188;-0,8433484;0,4919331;-0,1614236;44,90739;0,8451505;8,210576;1006,196
16,61983395;0,1517586;-0,1425802;1,847239;-0,8417928;0,4967833;-0,1532028;44,90739;0,8451505;8,210576;1006,194
16,64008951;-0,3433776;0,2136182;2,091839;-0,8400868;0,4938567;-0,172526;45,25318;0,101126;7,385589;1006,194
16,65781355;-0,2814856;0,2729846;1,908389;-0,8266483;0,5035259;-0,1851121;45,25318;0,101126;7,385589;1006,197
16,67806912;0,02797451;-0,08321376;1,541488;-0,8378204;0,5156213;-0,1844026;45,63083;0,8348236;7,751996;1006,197
16,69832516;0,3374346;-0,3206794;1,419188;-0,8406304;0,4909469;-0,1773662;45,63083;0,8348236;7,751996;1006,197
16,7185812;0,3993267;-0,1425802;1,969539;-0,8394727;0,4783818;-0,1630329;45,63083;0,8348236;7,751996;1006,197
16,73883724;-0,1577016;0,2729846;2,64219;-0,8457547;0,4948383;-0,159444;45,26319;0,4708928;7,762522;1006,195
16,75908899;-0,6528377;0,2136182;2,76449;-0,8335211;0,5160999;-0,1902275;45,26319;0,4708928;7,762522;1006,195
16,77934504;0,1517586;0,03551903;2,214139;-0,8207429;0,4943397;-0,179474;45,27466;0,4727763;8,205399;1006,193
16,79960108;0,8325708;-0,261313;2,70334;-0,8319376;0,5141769;-0,1801403;45,27466;0,4727763;8,205399;1006,193
16,81985664;0,3993267;-0,2019466;2,152989;-0,8477622;0,5335506;-0,1624469;45,27466;0,4727763;8,205399;1006,193
16,84011221;-0,1577016;-0,08321376;1,908389;-0,8278797;0,5151633;-0,1661972;45,28467;0,8425431;8,582333;1006,193
16,85783625;0,02797451;-0,02384736;1,908389;-0,8146787;0,4987211;-0,1602198;45,28467;0,8425431;8,582333;1006,193
16,87809181;0,4612187;0,03551903;1,174587;-0,8262698;0,5533666;-0,1909316;45,64192;0,1004021;8,200222;1006,189
16,89834786;0,1517586;-0,08321376;0,257336;-0,8207216;0,5287052;-0,17579;45,64192;0,1004021;8,200222;1006,187
16,9186039;0,02797451;0,2136182;-0,1095646;-0,8239358;0,5074266;-0,1619711;45,64192;0,1004021;8,200222;1006,187
16,93885994;-0,03391751;0,4510838;-0,354165;-0,8310623;0,5354633;-0,1867048;45,27428;-0,2635288;8,210748;1006,187
16,95911169;-0,09580953;0,09488543;-0,8433657;-0,8422493;0,5223898;-0,1886324;45,27428;-0,2635288;8,210748;1006,187
16,97936773;-0,3433776;-0,2019466;-1,026816;-0,8236173;0,5175741;-0,174896;45,64174;-0,2677505;8,202896;1006,192
16,99962378;-0,6528377;-0,3800458;-1,760617;-0,8139305;0,5432267;-0,1757307;45,64174;-0,2677505;8,202896;1006,192
17,01987934;-1,02419;-0,854977;-3,47282;-0,8059933;0,609021;-0,197873;45,64174;-0,2677505;8,202896;1006,192
17,04013538;0,02797451;-1,389274;-7,447576;-0,7855055;0,6404967;-0,1891302;45,27428;-0,2635288;8,210748;1006,192
17,05785894;-0,09580953;-1,033076;-10,68853;-0,7597584;0,5868316;-0,1527758;45,27428;-0,2635288;8,210748;1006,192
17,07811451;1,699059;-1,270542;-14,60214;-0,7749168;0,6279551;-0,1585095;45,27447;0,1046238;8,208074;1006,193
17,09837055;0,7087868;0,4510838;-19,43299;-0,8396937;0,6626178;-0,2881244;45,27447;0,1046238;8,208074;1006,193
17,15913439;4,17474;-1,270542;-33,43637;-0,7698467;0,680733;-0,1383258;45,27466;0,4727763;8,205399;1006,197
17,17939043;3,679604;-1,804839;-41,81393;-0,7895591;0,7929359;-0,193976;46,30484;1,50203;7,732697;1006,197
17,19964647;2,689331;-1,092443;-50,86414;-0,8074533;0,7847089;-0,1880773;46,30484;1,50203;7,732697;1006,199
17,21990204;5,350688;-1,448641;-61,13736;-0,7187225;0,7790146;-0,1230382;46,30484;1,50203;7,732697;1006,199
17,24015808;8,816642;-2,45787;-73,12277;-0,7303187;0,7620289;-0,1582526;45,62191;2,612613;7,359461;1006,197
17,25788164;9,621238;-1,508007;-81,80609;-0,6561818;1,075182;-0,1552449;45,62191;2,612613;7,359461;1006,197
17,27813721;-3,314195;2,172709;-94,03611;-0,8861568;0,4160192;-0,09225258;45,26556;5,134158;7,728645;1006,2
17,29839325;1,760951;1,044748;-105,2266;-0,7811404;0,9035507;-0,3709126;45,26556;5,134158;7,728645;1006,2
17,31864929;1,699059;0,7479158;-115,4386;-0,8978724;0,3133077;-0,1812566;45,26556;5,134158;7,728645;1006,2
17,33890534;-5,294739;0,7479158;-122,8378;-0,945793;0,6919374;-0,4207239;45,9525;8,687109;8,131273;1006,2
17,35915709;-10,06042;1,282213;-132,7441;-0,8256861;0,4600613;-0,1098458;45,9525;8,687109;8,131273;1006,198
17,37941313;-8,141772;1,460313;-141,0605;-0,7585889;0,6004508;-0,09675678;45,63681;12,6157;7,666411;1006,198
17,39966917;-3,314195;1,044748;-155,3696;-0,9484038;0,7919064;-0,1942318;45,63681;12,6157;7,666411;1006,198
17,41992474;-2,076354;0,1542518;-175,6715;-1,00811;0,8842344;-0,2640972;44,19099;17,9743;8,481524;1006,198
17,43764877;-2,447706;-0,1425802;-192,0597;-0,9169489;0,6212009;-0,09585702;44,19099;17,9743;8,481524;1006,202
17,45790482;-1,02419;2,053977;-206,43;-0,8976687;0,3531103;-0,08402349;44,19099;17,9743;8,481524;1006,202
17,47816086;-4,490143;4,013067;-214,6852;-0,9922705;0,1968041;-0,04394849;41,72329;24,44162;7,66458;1006,201
17,49841595;-9,565289;2,350809;-224,5304;-0,9852838;0,1158557;-0,1512688;41,72329;24,44162;7,66458;1006,201
17,51867199;-11,29827;0,6885494;-237,3108;-0,8242729;0,2658343;-0,2422286;37,81906;31,9743;8,136827;1006,201
17,53892803;-9,503397;-0,08321376;-253,5155;-0,8531391;0,2499265;-0,1813387;37,81906;31,9743;8,136827;1006,201
17,55917978;-5,727983;1,519679;-270,5764;-0,8026949;0,3138254;-0,1837053;37,81906;31,9743;8,136827;1006,205
17,57943583;-4,552035;0,8666486;-289,4106;-1,054532;0,02220166;-0,3354938;32,43357;39,58335;8,197159;1006,205
17,59969187;-5,604199;1,816511;-301,8853;-0,7254304;-0,2457306;-0,2917547;32,43357;39,58335;8,197159;1006,205
17,61994743;-6,84204;-0,08321376;-314,2987;-0,7095509;-0,4149456;-0,1565719;24,60768;46,11769;8,697467;1006,205
17,63767147;-8,884477;-1,804839;-320,1691;-0,3610879;-0,7950201;-0,007053487;24,60768;46,11769;8,697467;1006,207
17,65792751;-11,42205;-1,686106;-324,0827;-0,5330369;-0,6036158;-0,152433;24,60768;46,11769;8,697467;1006,207
17,67818356;-11,29827;-0,3800458;-333,3776;-0,2981151;-0,767132;-0,1766393;12,84244;52,32569;8,524986;1006,207
17,6984396;-12,53611;6,387723;-341,694;-0,4059453;-0,628458;-0,3251017;12,84244;52,32569;8,524986;1006,207
17,71869516;-17,92071;10,42464;-352,8844;-0,4492458;-1,143591;-0,4777426;-0,3536515;54,63034;9,994142;1006,206
17,73895073;-14,02151;24,67257;-380,83;-0,7446994;0,1206035;0,09540547;-0,3536515;54,63034;9,994142;1006,206
17,75920248;-16,4353;2,707007;-385,722;0,5932444;-0,8106884;-0,06163802;-0,3536515;54,63034;9,994142;1006,207
17,77945852;-13,03124;4,428632;-388,2292;0,7106535;-1,155013;-0,2891425;-15,27637;52,96476;11,1493;1006,207
17,79971457;-1,147974;2,469542;-385,4163;0,8276111;-1,032092;-0,3302377;-15,27637;52,96476;11,1493;1006,212
17,81997013;3,060683;6,031525;-382,7868;1,037355;-0,7071206;-0,2022828;-29,17011;46,74506;11,9356;1006,212
17,83769417;1,265815;8,881112;-374,1647;1,121889;-0,5978001;-0,2735216;-29,17011;46,74506;11,9356;1006,21
17,85795021;-3,437979;8,168715;-362,9131;1,205421;-0,62308;-0,3941625;-29,17011;46,74506;11,9356;1006,21
17,87820625;-2,942843;3,538137;-353,8017;1,308177;-0,5153305;-0,1706433;-39,91459;35,39061;11,42548;1006,212
17,8984623;-3,561763;1,579045;-348,1759;1,322947;-0,3826444;-0,1079092;-39,91459;35,39061;11,42548;1006,212
17,91871786;-1,086082;-0,02384736;-342,917;1,406348;-0,3382425;-0,2351488;-47,40429;22,28244;11,23809;1006,216
17,9389739;-2,26203;0,9853814;-336,9854;1,379822;-0,1635532;-0,641518;-47,40429;22,28244;11,23809;1006,216
17,95922566;-45,52456;-41,81779;-310,8743;-0,4182704;7,31E-05;-0,02914882;-47,40429;22,28244;11,23809;1006,216
17,9794817;-2,200138;8,881112;-353,8017;1,082915;-0,1362817;-0,805854;-50,65718;8,39129;11,40863;1006,216
17,99973726;-12,35043;4,784831;-357,593;0,7731612;-0,2523763;0,5348042;-50,65718;8,39129;11,40863;1006,217
18,01999283;-9,503397;0,332351;-361,5677;2,083607;-0,1149928;-0,3309115;-48,16299;-5,260815;11,07432;1006,217
18,03771687;5,783932;9,059212;-368,8446;1,272024;0,3155601;-0,610987;-48,16299;-5,260815;11,07432;1006,22
18,05797291;0,2755426;14,40219;-376,2438;1,359058;0,5753545;-0,3145968;-48,16299;-5,260815;11,07432;1006,22
18,07822895;0,3993267;16,89557;-380,5854;1,305956;0,2943582;-0,1469196;-41,73927;-18,52683;11,03275;1006,22
18,09848499;3,679604;17,07368;-395,9341;1,65562;0,3772001;-0,1879482;-41,73927;-18,52683;11,03275;1006,22
18,11874056;-14,64043;11,79007;-428,3437;1,465736;0,4384077;-0,3376876;-31,77427;-30,48564;10,4626;1006,216
18,1389966;-16,12584;11,13704;-454,4547;1,647908;0,3127846;-0,226042;-31,77427;-30,48564;10,4626;1006,216
18,15924835;-19,65369;7,456318;-472,6163;1,326854;0,7520321;-0,2769944;-31,77427;-30,48564;10,4626;1006,217
18,1795044;-12,22665;14,69902;-484,9075;1,441373;0,9969642;-0,2726205;-17,16248;-38,14307;9,381737;1006,217
18,19976044;-13,46449;18,7953;-491,1448;0,9623917;1,246365;0,01424429;-17,16248;-38,14307;9,381737;1006,214
18,22001648;-14,70233;22,95095;-492,062;0,4708291;1,171841;-0,2236559;1,677369;-41,18579;8,1767;1006,214
18,23774052;-9,689073;21,82299;-490,7779;0,2975094;1,196031;-0,1753338;1,677369;-41,18579;8,1767;1006,212
18,25799561;-4,490143;17,42987;-495,8534;0,7501343;1,517606;0,2666731;1,677369;-41,18579;8,1767;1006,212
18,27825165;-1,02419;17,13304;-515,1157;0,930378;1,383771;-0,4058987;20,62537;-35,69335;8,553365;1006,215
18,29850769;-5,418523;16,42064;-535,6621;0,9497507;0,6954502;-0,9207981;20,62537;-35,69335;8,553365;1006,215
18,31876326;-7,522852;19,21087;-556,3309;0,06054106;1,121468;-0,5263002;35,94241;-23,04528;8,133047;1006,217
18,3390193;-15,94017;16,06445;-563,5466;-0,3690785;0,6865624;-0,6466549;35,94241;-23,04528;8,133047;1006,217
18,35927105;-17,67314;11,67133;-559,9387;-0,6704713;0,08994894;-0,4632953;35,94241;-23,04528;8,133047;1006,211
18,37952709;-12,72178;4,428632;-547,8922;-0,1374043;-0,3358413;-0,158058;44,91522;-3,080195;8,618712;1006,211
18,39978314;-9,874749;2,766373;-528,5076;0,1130463;-0,6962422;-0,1162494;44,91522;-3,080195;8,618712;1006,207
18,42003918;-9,379613;5,972158;-513,3423;-0,1412764;-0,5766785;-0,01367374;43,52988;20,13148;8,923194;1006,207
18,43776321;-10,2461;4,428632;-505,3928;0,0914423;-0,4939649;-0,1233511;43,52988;20,13148;8,923194;1006,207
18,45801878;-8,760693;3,775602;-497,5044;-0,3641556;-0,9119638;-0,261593;43,52988;20,13148;8,923194;1006,207
18,47827482;-9,070152;5,378494;-489,4937;-0,1255667;-1,135079;-0,3461406;32,4856;38,85565;10,22709;1006,21
18,49853087;-26,58559;39,57354;-484,7852;0,6748633;-0,4927677;2,2731;32,4856;38,85565;10,22709;1006,21
18,51878691;9,806913;-15,93404;-535,5399;0,737099;0,5985575;0,2599559;15,72252;50,46305;10,94562;1006,208
18,53904295;-58,39809;54,59324;-627,9376;-0,2571487;-0,9597518;1,002975;15,72252;50,46305;10,94562;1006,208
18,55929375;-12,53611;-7,088449;-530,0363;-0,3302888;-0,2576638;0,1179663;15,72252;50,46305;10,94562;1006,214
18,57954979;-1,64311;-6,376052;-539,6369;1,08274;-0,8379982;-0,3890215;-5,260222;54,69621;12,18799;1006,214
18,59980583;8,321506;4,666098;-547,2806;0,939463;-0,6941633;-0,2613757;-5,260222;54,69621;12,18799;1006,212
18,62006188;10,05448;2,82574;-560,7336;1,011647;-0,6640517;-0,196802;-26,69861;47,76351;12,69816;1006,212
18,63778591;7,393125;5,437861;-572,0464;1,296967;-0,9561513;-0,5128485;-26,69861;47,76351;12,69816;1006,212
18,65804148;8,197721;8,821746;-594,1827;1,538999;-0,3643229;-0,2334148;-26,69861;47,76351;12,69816;1006,212
18,67829752;2,875007;10,36527;-617,4198;1,525679;-0,316917;-0,2473046;-42,41713;32,59857;11,87924;1006,215
18,69855356;4,917444;7,75315;-625,0024;2,135206;-0,1460804;-0,4416275;-42,41713;32,59857;11,87924;1006,215
18,71880961;2,317979;6,862654;-624,1463;2,02981;0,09384444;-0,5053384;-49,54246;10,15991;11,81502;1006,215
18,73906565;-6,346904;6,565823;-627,8765;2,070066;0,132375;-0,2726255;-49,54246;10,15991;11,81502;1006,215
18,7593174;-2,385814;1,875877;-633,9915;2,779571;0,6119723;-0,1032591;-44,22657;-13,89258;11,87546;1006,217
18,79982901;-1,395542;5,734693;-662,9766;1,877224;1,552957;-0,07364105;-44,22657;-13,89258;11,87546;1006,214
18,82008505;-13,09313;14,58029;-664,3831;1,412159;1,38782;-0,4128897;-26,78215;-32,9916;11,63979;1006,214
18,83780909;-16,4353;20,81376;-661,081;1,278517;1,126019;-0,3540756;-26,78215;-32,9916;11,63979;1006,21
18,85806418;-12,22665;17,37051;-656,6782;0,8917727;1,493401;-0,182794;-0,401895;-40,47572;10,68505;1006,21
18,87832022;-15,50692;16,24254;-650,1962;0,8216397;0,8018759;-0,1193761;-0,401895;-40,47572;10,68505;1006,207
18,89857626;-16,06395;15,41142;-640,718;0,4750939;0,632619;-0,3023127;-0,401895;-40,47572;10,68505;1006,207
18,9188323;-20,58207;10,12781;-632,2181;0,3102341;0,5487587;-0,3615712;24,94616;-33,58966;9,711522;1006,208
18,93908835;-13,21692;7,10012;-620,9053;0,0490028;0,4498787;-0,005451861;24,94616;-33,58966;9,711522;1006,208
18,9593401;-8,203665;8,287449;-606,5351;-0,2459762;0,451498;-0,1724499;41,02322;-13,39941;10,04316;1006,203
18,97959614;-8,884477;7,990616;-604,3337;-0,3362091;0,347853;-0,2080966;41,02322;-13,39941;10,04316;1006,203
18,9998517;-75,10894;24,13828;-582,0139;3,661463;-1,075751;1,076121;41,02322;-13,39941;10,04316;1006,201
19,02010775;-5,294739;43,13552;-679,9152;-0,6902195;0,8582275;2,930167;44,96505;11,22339;10,15982;1006,201
19,03783178;-54,437;22,83221;-610,9379;-1,440516;1,15788;0,8437688;44,96505;11,22339;10,15982;1006,207
19,07834387;-36,674;-10,82853;-658,7573;0,1227171;-0,468664;-0,4208286;35,74038;33,85018;10,63671;1006,205
19,09859943;-9,874749;1,875877;-684,4403;0,3191378;0,1977017;-0,9181367;35,74038;33,85018;10,63671;1006,205
19,11885548;8,073937;1,99461;-708,5334;0,5760049;-0,0390386;-0,2723358;15,44742;50,47169;12,15425;1006,202
19,13911152;1,451491;14,75839;-720,8246;1,522346;-0,7321758;-0,2654791;15,44742;50,47169;12,15425;1006,202
19,15936327;-5,480415;8,821746;-721,803;1,373289;-0,7388595;-0,1425055;-12,41647;53,30754;12,7314;1006,209
19,17961931;-7,213392;3,597503;-722,2922;2,013356;-0,7751178;-0,3144417;-12,41647;53,30754;12,7314;1006,209
19,1998744;-0,7766218;-8,394509;-718,3786;2,157208;-0,5384395;0,05777144;-12,41647;53,30754;12,7314;1006,211
19,21759844;-2,385814;-8,988173;-731,0367;1,49605;-0,5695238;-0,2222824;-37,05288;39,29219;12,98172;1006,211
19,23785448;1,265815;-7,860212;-751,0939;0,9781919;-0,2184857;-0,7158418;-37,05288;39,29219;12,98172;1006,211
19,25811052;-9,193936;-4,060763;-764,9138;2,978279;0,6374182;-0,3345498;-49,48806;14,09548;13,81107;1006,217
19,27836657;-11,66962;1,875877;-764,9138;2,735614;0,709357;0,000745229;-49,48806;14,09548;13,81107;1006,217
19,29862213;-16,99233;14,04599;-761,1837;2,092437;1,005165;-0,1030375;-49,48806;14,09548;13,81107;1006,214
19,31887817;-19,46801;22,89158;-743,0221;1,684915;0,9839126;-0,3374904;-43,16525;-16,0486;12,6913;1006,214
19,33913422;-18,7872;22,77285;-733,4215;1,554814;1,039236;-0,1707801;-43,16525;-16,0486;12,6913;1006,214
19,35938597;-12,72178;15,70825;-722,9648;1,427417;1,225272;-0,3668045;-19,60898;-36,99927;11,89482;1006,214
19,37964201;-11,66962;12,91803;-714,465;1,188823;1,515662;-0,2787574;-19,60898;-36,99927;11,89482;1006,213
19,39989805;-10,98881;15,05522;-710,0622;0,8317208;1,209198;-0,2628044;-19,60898;-36,99927;11,89482;1006,213
19,41762209;-12,598;17,9048;-703,9472;0,4917589;1,152058;-0,1821249;9,592407;-39,85222;10,90928;1006,209
19,43787766;-19,40612;13,39296;-696,0588;0,2306419;1,236724;-0,1202779;9,592407;-39,85222;10,90928;1006,209
19,4581337;16,36747;35,29916;-690,433;0,5302024;1,065254;-0,3385099;34,21952;-24,79539;10,27177;1006,204
19,47838974;-45,58644;2,172709;-707,6774;2,269996;1,281911;-0,2233916;34,21952;-24,79539;10,27177;1006,204
19,49864578;-13,40259;18,9734;-843,8586;2,217268;0,4857546;-0,643554;34,21952;-24,79539;10,27177;1006,2
19,51890183;-23,86235;30,60921;-693,9186;-3,564333;-2,26722;-4,971449;44,99217;0,1228368;11,50587;1006,2
19,53915739;-46,39104;-4,891892;-749,6263;0,1344957;0,8950959;-0,4510487;44,99217;0,1228368;11,50587;1006,196
19,55940962;-1,828786;-1,62674;-788,1509;-0,1605611;0,4868624;-0,5692132;37,54568;30,21472;11,82715;1006,196
19,57966471;-9,070152;-5,366824;-790,7803;1,272735;-0,1443596;-0,3442821;37,54568;30,21472;11,82715;1006,195
19,61764479;-7,089608;12,6212;-792,676;2,114965;-0,7476809;-0,07042918;13,98892;50,18366;12,63076;1006,201
19,63790035;-11,42205;8,76238;-796,773;1,144765;-0,5978421;0,08337489;13,98892;50,18366;12,63076;1006,201
19,6581564;-19,40612;0,8072822;-810,7764;1,590417;-0,1570191;-0,1096665;-18,45887;51,96945;13,69369;1006,202
19,67841244;-4,799603;-15,39974;-825,9416;0,9425586;0,6686866;-0,6399758;-18,45887;51,96945;13,69369;1006,202
19,71892452;-8,822585;1,519679;-836,8264;3,270392;0,2588766;-0,4991468;-42,70909;32,92196;14,79519;1006,204
19,73918009;-11,91719;13,45232;-828,8768;3,084043;0,8414046;-0,5690279;-42,70909;32,92196;14,79519;1006,204
19,75943232;-12,47421;22,47602;-810,6541;2,474276;1,142824;-0,4456241;-48,06546;-0,2137923;14,70732;1006,204
19,77968836;-12,78367;25,74117;-792,8594;2,085525;1,068752;-0,3438565;-48,06546;-0,2137923;14,70732;1006,205
19,79994392;-13,03124;21,52615;-792,1256;2,149357;0,9358892;-0,1784889;-31,70801;-29,00227;12,98263;1006,205
19,81766796;-11,73151;22,00109;-791,2084;1,782371;1,196254;-0,06525551;-31,70801;-29,00227;12,98263;1006,203
19,837924;-17,2399;23,42588;-790,7192;1,704295;1,504594;-0,3903469;-31,70801;-29,00227;12,98263;1006,203
19,85818005;-17,54936;17,9048;-785,6437;1,107773;1,371217;-0,4382539;-1,38897;-40,45488;12,79515;1006,2
19,87843561;-19,03477;16,00508;-777,5107;1,304122;1,043491;-0,1738717;-1,38897;-40,45488;12,79515;1006,2
19,89869165;-20,82964;14,34282;-770,7842;0,6236106;0,8542843;-0,3389943;28,55186;-31,16751;11,64237;1006,197
19,9189477;108,7104;90,62865;-772,1907;-1,111369;1,25323;-1,246744;28,55186;-31,16751;11,64237;1006,197
19,93920374;-21,01531;-101,1842;-779,9567;3,730412;-0,1743936;1,243064;28,55186;-31,16751;11,64237;1006,194
19,95945549;-2,880951;23,78208;-785,6437;-0,7031963;0,7976563;-0,3196775;43,95833;-4,895005;11,94427;1006,194
19,97971153;-23,73856;13,92726;-833,6465;0,01385817;1,99416;0,3828764;43,95833;-4,895005;11,94427;1006,189
19,99996662;-35,25048;-7,029083;-845,8154;1,647888;-0,707169;-0,8353056;40,38158;25,21579;12,62555;1006,189
20,01769066;-17,79693;2,291442;-855,1714;1,28122;0,1096261;-0,821637;40,38158;25,21579;12,62555;1006,186
20,0379467;-7,832312;6,803288;-874,6782;1,335729;-0,2300168;-0,3616275;40,38158;25,21579;12,62555;1006,186
20,05820274;-4,118791;8,406181;-883,1781;1,919651;-0,5148653;0,0180857;16,89751;48,3763;13,78428;1006,186
20,07845831;-11,54583;3,716236;-877,43;2,372613;-0,3475873;-0,26715;16,89751;48,3763;13,78428;1006,186
20,09871435;-21,32477;2,469542;-883,1781;2,103883;-0,3603806;-0,3550312;-17,70286;51,59635;14,50315;1006,193
20,11897039;-25,16208;-7,682113;-888,5593;2,419462;-1,00457;-0,09091368;-17,70286;51,59635;14,50315;1006,193
20,13922644;-9,750965;0,2136182;-896,8757;3,019771;0,1803684;-0,1087361;-17,70286;51,59635;14,50315;1006,198
20,15947819;-2,26203;5,972158;-896,5089;3,283986;0,6540481;0,1115595;-44,11981;28,70439;14,85605;1006,198
20,17973423;-9,565289;17,84544;-898,7714;3,370531;0,831198;-0,6960186;-44,11981;28,70439;14,85605;1006,198
20,21771383;-16,4353;24,85067;-876,5128;2,431762;1,286378;-0,1831323;-46,64851;-6,302608;15,16423;1006,193
20,23796988;-22,25315;25,8599;-868,6855;2,055582;1,081968;-0,2113606;-46,64851;-6,302608;15,16423;1006,193
20,25822592;-19,71558;20,99186;-858,7181;2,099153;1,197065;-0,2951269;-24,19753;-33,00834;14,4332;1006,196
20,27848196;-16,80666;19,1515;-858,5346;1,45574;1,56617;-0,2175066;-24,19753;-33,00834;14,4332;1006,196
20,298738;-18,97288;16,06445;-853,2145;1,223253;1,085401;-0,3080704;10,02407;-39,17101;13,36397;1006,194
20,31899357;-21,1391;18,67657;-841,5349;1,206667;0,9641995;-0,4776787;10,02407;-39,17101;13,36397;1006,194
20,33924961;-24,54316;14,34282;-832,4847;0,550996;0,7671147;-0,3631114;10,02407;-39,17101;13,36397;1006,189
20,35950184;6,155284;117,4029;-830,8336;2,099719;1,364696;6,236097;37,54141;-20,15731;13,0156;1006,189
20,3797574;-14,02151;-5,901121;-833,4631;1,169289;0,004315138;0,5685953;37,54141;-20,15731;13,0156;1006,185
20,40001345;-2,633383;36,01156;-838,4163;-0,3165689;-2,239131;-3,596296;44,29436;11,91727;12,63808;1006,185
20,41773748;-49,23808;-3,882663;-872,2322;0,167831;0,08742078;-1,21828;44,29436;11,91727;12,63808;1006,185
20,43799353;-14,33097;-11,36283;-912,7748;1,387303;0,7403181;-0,3779896;44,29436;11,91727;12,63808;1006,185
20,45824862;-8,327449;4,784831;-928,7349;1,155562;0,1688776;-0,6096333;27,63271;41,44584;14,42723;1006,185
20,47850466;-11,0507;18,49847;-950,2598;2,45857;-0,9805211;-0,2265437;27,63271;41,44584;14,42723;1006,185
20,4987607;-7,894204;10,36527;-944,4505;2,712054;-0,1619549;-0,1471283;-5,91106;52,57109;15,50923;1006,187
20,51901627;-15,44503;18,4391;-935,5226;3,113644;-0,3867654;-0,4845225;-5,91106;52,57109;15,50923;1006,187
20,53927231;-7,584744;0,1542518;-931,7924;2,928954;-0,1720656;0,2259383;-5,91106;52,57109;15,50923;1006,194
20,55952454;0,9563549;-6,257319;-938,0297;1,843079;0,4225331;-0,7775253;-38,7563;37,17715;15,88233;1006,194
20,5797801;3,927172;4,96293;-942,6771;2,746685;0,2925953;-0,4629347;-38,7563;37,17715;15,88233;1006,196
20,61776018;-15,19746;18,55783;-962,8567;3,226408;1,606708;-0,8754563;-48,01017;2,249437;16,77734;1006,196
20,63801622;-26,95695;18,37974;-955,8856;2,816515;1,281015;-0,3376278;-48,01017;2,249437;16,77734;1006,196
20,65827179;-26,39992;21,46679;-943,5944;2,045183;1,69482;-0,07461957;-28,45029;-30,13121;15,76966;1006,193
20,67852783;-20,82964;17,78607;-929,1018;1,996816;1,350268;-0,03818017;-28,45029;-30,13121;15,76966;1006,193
20,69878388;-18,91098;16,18318;-921,9473;1,796442;0,9597369;-0,3547943;8,269183;-39,4539;14,22664;1006,191
20,71903992;-20,02504;16,53938;-915,0984;1,171857;0,824083;-0,2761488;8,269183;-39,4539;14,22664;1006,191
20,73929596;-20,58207;15,11458;-906,2928;1,131926;0,7722232;-0,3263193;8,269183;-39,4539;14,22664;1006,186
20,75954771;-25,781;15,76761;-898,4656;0,8757191;0,05971631;-0,3449839;38,22654;-20,16317;13,44408;1006,186
20,77980375;-21,20099;14,87712;-885,196;0,8772651;-0,01964891;-0,3423433;38,22654;-20,16317;13,44408;1006,177
20,80005932;-15,50692;19,6858;-897,9153;-0,9728121;-1,371186;-9,197413;44,69621;15,17045;13,87196;1006,177
20,81778336;37,65833;-18,843;-949,8929;4,376107;4,290722;-2,848614;44,69621;15,17045;13,87196;1006,183
20,8380394;-36,6121;50,61569;-928,368;-0,03533573;-4,916677;-5,124309;44,69621;15,17045;13,87196;1006,183
20,85829544;-7,832312;-24,00787;-946,3461;0,05437655;0,4140839;-0,7899957;23,3705;45,05767;15,37874;1006,185
20,87855148;-16,37341;-4,77316;-981,9355;2,585299;-0,08800597;0,2125024;23,3705;45,05767;15,37874;1006,185
20,89880705;2,875007;-7,860212;-980,0399;2,578117;-0,03677519;-0,639562;-12,9937;52,96301;16,48129;1006,186
20,91906309;-3,685547;21,88235;-994,8994;4,291668;-0,09218042;-0,5801219;-12,9937;52,96301;16,48129;1006,186
20,93931913;-7,089608;18,32037;-983,4642;3,731615;0,3591614;-0,1599613;-43,3196;31,52894;17,2873;1006,186
20,95957041;-7,894204;6,684555;-978,878;3,477683;0,6093935;-0,05765548;-43,3196;31,52894;17,2873;1006,186
20,97982645;1,513383;5,556594;-991,0469;3,412564;0,3486452;-0,3494667;-43,3196;31,52894;17,2873;1006,185
20,99755049;5,474473;10,54337;-998,8741;3,269347;0,4755861;0,2137259;-45,85975;-6,670325;17,23904;1006,185
21,01780605;0,4612187;20,81376;-1013,978;3,504051;2,219805;-0,229429;-45,85975;-6,670325;17,23904;1006,181
21,0380621;-21,38667;20,51693;-1027,92;3,118041;2,094858;-0,576381;-45,85975;-6,670325;17,23904;1006,181
21,05831814;-28,31857;19,8639;-1026,392;2,163912;1,637688;-0,532335;-18,8167;-35,57639;16,42548;1006,176
21,07857418;-24,60505;15,64888;-1009,759;1,783659;0,8579835;-0,4514899;-18,8167;-35,57639;16,42548;1006,176
21,09882975;-27,14262;14,22409;-996,6115;1,538245;0,6445413;-0,7862704;21,16367;-34,62649;15,11781;1006,171
21,11908579;-23,24343;10,78084;-986,8887;2,168033;0,5828978;-0,3380329;21,16367;-34,62649;15,11781;1006,171
21,13934183;-25,47154;11,49323;-981,9355;1,560449;0,06450889;-0,2027782;43,66695;-3,405796;14,85175;1006,164
21,15959358;-17,42558;18,32037;-972,8242;2,02991;-0,05008928;-0,2699928;43,66695;-3,405796;14,85175;1006,164
21,17984963;-22,00558;17,9048;-959,0042;2,056426;-0,7768548;-0,5631273;43,66695;-3,405796;14,85175;1006,162
21,19757366;-16,24963;15,64888;-948,3641;1,970266;-1,06561;-0,3980621;34,10337;33,52531;16,05512;1006,162
21,2178297;-13,09313;17,48924;-941,393;2,444942;-0,8845559;-0,1055224;34,10337;33,52531;16,05512;1006,164
21,23808527;-153,3405;70,0285;-965,2415;2,374069;-1,182018;1,255067;0,5734043;52,50609;17,45967;1006,164
21,25834131;-0,3433776;75,60895;-1008,23;0,4870078;4,205137;-0,3525877;0,5734043;52,50609;17,45967;1006,169
21,27859736;15,87233;32,62767;-1172,907;5,437679;-0,5994024;-2,169981;0,5734043;52,50609;17,45967;1006,169
21,2988534;-12,96935;33,815;-1032,017;1,401831;-0,7412878;0,2403358;-33,67841;41,05529;17,83434;1006,168
21,31910944;19,83342;23,66335;-1042,291;3,42609;0,627073;0,1705397;-33,67841;41,05529;17,83434;1006,168
21,33936501;-27,01884;23,84144;-1042,413;3,96032;0,87796;-1,432504;-47,62068;3,721323;17,58127;1006,166
21,35961723;-24,9764;31,97464;-1044,247;3,908167;1,82672;-0,4507694;-47,62068;3,721323;17,58127;1006,166
21,37987328;-19,09666;23,84144;-1035,564;2,716527;1,996902;-0,2120209;-47,62068;3,721323;17,58127;1006,161
21,39759684;-12,65989;29,30315;-1014,162;2,841346;1,109396;0,2066302;-26,65332;-30,82306;16,5591;1006,161
21,41785288;-7,832312;29,06569;-1027,431;3,520342;2,020044;-0,1412776;-26,65332;-30,82306;16,5591;1006,161
21,43810892;-22,81018;34,23056;-1041,74;3,246125;1,229081;-0,5990519;13,33433;-38,09335;15,75405;1006,159
21,45836496;-30,11344;36,48649;-1073,049;1,693577;2,488794;-0,925487;13,33433;-38,09335;15,75405;1006,159
21,47862053;-26,89506;17,78607;-1086,319;2,066927;0,9548982;-0,4401178;13,33433;-38,09335;15,75405;1006,154
21,49887657;-22,43883;10,78084;-1070,175;1,648174;-0,7190025;-0,6166016;41,16332;-11,59714;15,40802;1006,154
21,51913214;-16,68287;8,049983;-1053,97;2,356572;-0,2371019;-0,1440441;41,16332;-11,59714;15,40802;1006,149
21,5393877;-23,92424;4,487998;-1036,481;2,700335;-0,6182735;-0,0995551;36,57235;29,5737;16,85379;1006,149
21,55963993;-15,75449;10,89957;-1027,553;3,017067;-0,6400242;-0,1778094;36,57235;29,5737;16,85379;1006,152
21,57989597;-19,22044;2,113343;-1016,363;3,17193;0,03025081;0,1668755;36,57235;29,5737;16,85379;1006,152
21,59761953;-18,91098;4,96293;-1011,838;3,384217;-0,176029;-0,393427;1,635623;52,12948;18,26258;1006,157
21,63813162;-19,96315;16,42064;-987,6224;3,563106;-0,002099079;-0,294464;-34,73872;40,03186;19,51045;1006,168
21,65838766;-13,58827;17,07368;-982,6693;3,902782;0,7743666;-0,2394757;-34,73872;40,03186;19,51045;1006,168
21,67864323;-22,81018;-141,1378;-1016,608;3,87762;1,863988;-0,8366486;-34,73872;40,03186;19,51045;1006,174
21,69889927;-71,14786;133,0163;-1058,618;-0,2687261;0,5864365;2,157402;-46,55775;4,755958;18,37393;1006,174
21,71915531;-25,59532;19,8639;-1003,888;4,946548;3,734457;-0,002082288;-46,55775;4,755958;18,37393;1006,179
21,73941135;-42,36806;49,07216;-1071,276;5,258715;2,160455;-1,440448;-28,40715;-29,01975;17,40661;1006,179
21,75966311;-32,27966;43,19489;-1097,631;1,982641;0,8052957;-0,8613358;-28,40715;-29,01975;17,40661;1006,178
21,77991915;-24,85262;21,28869;-1085,035;3,191651;0,9873585;-1,167936;-28,40715;-29,01975;17,40661;1006,178
21,79764319;-23,05775;-1,151809;-1092,556;1,857862;1,510722;-0,9731718;11,60107;-37,69779;17,43429;1006,174
21,81789923;-20,58207;14,16472;-1076,535;1,862996;0,5103105;0,5619667;11,60107;-37,69779;17,43429;1006,174
21,83815479;-30,85614;27,58153;-1074,578;2,04808;1,250754;0,09484771;41,18443;-11,96179;16,23318;1006,168
21,85841084;-50,29024;26,9285;-1082,038;2,205156;0,9567716;-0,535548;41,18443;-11,96179;16,23318;1006,168
21,87866688;-39,33535;8,58428;-1091,088;2,105215;-0,1339876;-0,03827466;41,18443;-11,96179;16,23318;1006,168
21,89892292;-26,15235;24,61321;-1111,635;2,423793;1,027849;0,1394641;36,57235;29,5737;16,85379;1006,168
21,91917849;-23,98613;18,91403;-1121,235;3,602715;-0,4429737;-0,2983834;36,57235;29,5737;16,85379;1006,171
21,93943453;-10,2461;21,05122;-1111,329;4,187417;-0,1390144;-0,05746892;0,9928875;51,77418;19,48175;1006,171
21,95968676;0,02797451;18,32037;-1095,614;4,237844;0,1685208;0,1096084;0,9928875;51,77418;19,48175;1006,172
